sep=;
ACCELEROMETER X (m/s²);ACCELEROMETER Y (m/s²);ACCELEROMETER Z (m/s²);GRAVITY X (m/s²);GRAVITY Y (m/s²);GRAVITY Z (m/s²);LINEAR ACCELERATION X (m/s²);LINEAR ACCELERATION Y (m/s²);LINEAR ACCELERATION Z (m/s²);GYROSCOPE X (°/s);GYROSCOPE Y (°/s);GYROSCOPE Z (°/s);LIGHT (lux);MAGNETIC FIELD X (μT);MAGNETIC FIELD Y (μT);MAGNETIC FIELD Z (μT);ORIENTATION Z (azimuth °);ORIENTATION X (pitch °);ORIENTATION Y (roll °);PROXIMITY (m);ATMOSPHERIC PRESSURE (hPa);SOUND LEVEL (dB);LOCATION Latitude : ;LOCATION Longitude : ;LOCATION Altitude ( m);LOCATION Altitude-google ( m);LOCATION Altitude-atmospheric pressure ( m);LOCATION Speed ( Kmh);LOCATION Accuracy ( m);LOCATION ORIENTATION (°);Satellites in range;Time since start in ms ;YYYY-MO-DD HH-MI-SS_SSS
1.122284;1.422745;9.408615;-0.711267;1.233383;9.702744;1.901689;0.100943;-0.526987;59.7734;-9.0486;10.4851;2147.4836;5.5481;12.9059;-43.2755;348.5213;-4.7721;3.2348;5.0;1005.1301;41.82655;50.74793;-1.8690368;85.0;35.556015;;0.0;3.216;;17 / 23;16;2018-03-13 16:46:09:029
-0.747589;2.279877;8.575424;-0.754086;1.437297;9.671397;0.181839;0.752197;-1.307258;7.7713;22.5674;-58.1797;2147.4836;5.9982;12.3062;-43.2755;351.1387;-8.0157;4.0492;5.0;1005.1301;41.82655;50.74793;-1.8690368;85.0;35.556015;;0.0;3.216;;17 / 23;56;2018-03-13 16:46:09:069
-2.50972;0.029327;8.431778;-0.981452;1.265822;9.674959;-1.70627;-1.053225;-1.618214;-49.6626;31.8442;-28.7607;2147.4836;6.4484;12.4557;-43.2755;354.6799;-7.4163;5.7924;5.0;1005.0566;41.82655;50.74793;-1.8690368;85.0;35.556015;;0.0;3.216;;17 / 23;97;2018-03-13 16:46:09:110
-0.424362;2.895188;10.627258;-0.949813;0.876977;9.721067;0.446211;1.483775;-0.084091;-39.0429;-10.0252;-12.4032;2147.4836;6.5979;13.6566;-42.8253;351.5311;-5.741;5.8593;5.0;1004.92;41.82655;50.74793;-1.8690368;85.0;35.556015;;0.0;3.216;;17 / 23;137;2018-03-13 16:46:09:150
-1.145019;1.101929;7.957733;-0.857656;0.853041;9.731759;-0.18719;-0.270176;-2.438458;16.4991;-38.2237;-45.4233;2147.4836;6.4484;14.7064;-42.2256;354.5743;-4.7368;5.763;5.0;1004.92;37.69412;50.74793;-1.8690368;85.0;35.556015;;0.0;3.216;;17 / 23;177;2018-03-13 16:46:09:190
-0.055664;-0.052078;11.46524;0.0719;1.133094;9.740704;-0.152954;-1.373216;0.493917;48.9702;-172.0736;12.8657;2147.4836;1.799;14.4058;-42.8253;356.9569;-6.1631;1.2807;5.0;1004.8233;37.69412;50.74793;-1.8690368;85.0;35.556015;;0.0;3.216;;17 / 23;217;2018-03-13 16:46:09:230
-0.204102;-0.413605;7.969696;0.207988;1.179913;9.733187;-0.598258;-1.617386;-1.669485;-50.0289;93.7954;31.0539;2147.4836;1.0483;12.7563;-44.3253;353.9149;-6.9104;-1.2242;5.0;1004.81;37.69412;50.74793;-1.8690368;85.0;35.556015;;0.0;3.216;;17 / 23;257;2018-03-13 16:46:09:270
0.990601;2.143402;11.656769;-0.280274;0.910644;9.760255;1.219098;1.222703;1.642705;2.2783;62.4233;-10.2062;2147.4836;1.1993;12.7563;-44.0262;353.9149;-6.9104;-1.2242;5.0;1004.81;37.69412;50.74793;-1.8690368;85.0;35.556015;;0.0;3.216;;17 / 23;298;2018-03-13 16:46:09:311
-0.900818;0.328598;11.338333;-0.542647;0.992286;9.741217;-0.59682;-0.61538;1.656753;24.19;61.0805;-9.2899;2147.4836;4.7989;13.2065;-44.0262;354.1823;-5.3282;1.6448;5.0;1004.81;37.69412;50.74793;-1.8690368;85.0;35.556015;;0.0;3.216;;17 / 23;337;2018-03-13 16:46:09:350
-2.296631;0.414795;8.575424;-0.935153;1.064513;9.703746;-1.262857;-0.769012;-1.35576;-3.0319;-9.5985;26.415;2147.4836;5.5481;13.356;-44.0262;350.9632;-6.1221;4.1404;5.0;1004.7866;37.69412;50.74793;-1.8690368;85.0;35.556015;;0.0;3.216;;17 / 23;377;2018-03-13 16:46:09:390
-0.441132;1.291061;9.008789;-0.412036;1.095966;9.736502;0.104864;0.476994;-0.346532;13.9358;-86.5635;50.5849;2147.4836;5.9982;13.2065;-44.0262;354.361;-6.2317;5.5046;5.0;1004.7866;37.69412;50.74793;-1.8690368;85.0;35.556015;;0.0;3.216;;17 / 23;417;2018-03-13 16:46:09:430
-0.857712;0.39563;8.472473;-0.003958;1.277924;9.723028;-0.721209;-0.720282;-1.287817;31.6973;-35.294;55.9564;2147.4836;3.299;13.2065;-44.0262;350.041;-6.4166;2.4232;5.0;1004.7333;37.69412;50.74793;-1.8690368;85.0;35.556015;;0.0;3.216;;17 / 23;457;2018-03-13 16:46:09:470
0.246017;3.14418;10.29686;0.272522;1.325858;9.712786;0.784312;0.922689;0.479193;-0.4074;-53.5434;-14.539;2147.4836;2.6993;12.7563;-44.0262;349.3399;-7.7651;-0.7068;5.0;1004.7266;43.59497;50.74793;-1.8690368;85.0;35.556015;;0.0;3.216;;17 / 23;496;2018-03-13 16:46:09:509
-0.127487;0.539291;10.074203;0.392331;1.455116;9.690155;-0.24405;-1.106947;1.191963;40.3639;44.9057;-20.7035;2147.4836;2.6993;12.4557;-44.1757;344.0912;-7.7657;-2.7089;5.0;1004.7266;43.59497;50.74793;-1.8690368;85.0;35.556015;;0.0;3.216;;17 / 23;536;2018-03-13 16:46:09:549
0.949905;2.46901;9.085403;0.437098;1.657526;9.655669;0.583397;0.774776;-0.727544;18.3307;-31.7541;-23.9994;2147.4836;2.6993;10.9558;-44.3253;345.6451;-9.0682;-2.0203;5.0;1004.77;43.59497;50.74793;-1.8690368;85.0;35.556015;;0.0;3.216;;17 / 23;576;2018-03-13 16:46:09:589
-0.225647;1.597519;10.093353;0.416579;1.703691;9.648539;0.394728;0.1623;0.50215;-2.1778;42.4036;-29.127;2147.4836;1.4984;10.8063;-44.7754;351.0344;-10.0047;-2.4722;5.0;1004.8133;43.59497;50.74793;-1.8690368;85.0;35.556015;;0.0;3.216;;17 / 23;616;2018-03-13 16:46:09:629
0.382477;1.434723;11.199478;-0.028878;1.713379;9.655769;0.250343;-0.475488;1.672002;21.9318;39.5351;-0.6234;2147.4836;1.1993;10.8063;-44.7754;355.7105;-9.8777;-0.4988;5.0;1004.8133;43.59497;50.74793;-1.8690368;85.0;35.556015;;0.0;3.216;;17 / 23;656;2018-03-13 16:46:09:669
-0.400421;2.083542;9.332001;-0.156766;1.91953;9.615676;-0.277552;0.064829;-0.47953;11.25;2.0598;-17.286;2147.4836;2.6993;10.5072;-44.6259;353.1752;-11.0157;0.8625;5.0;1004.8467;43.59497;50.74793;-1.8690368;85.0;35.556015;;0.0;3.216;;17 / 23;697;2018-03-13 16:46:09:710
-0.050873;1.777084;10.531494;-0.177039;1.941876;9.610836;0.250722;-0.067103;0.581479;9.053;5.3549;-5.6285;2147.4836;2.8488;9.7565;-44.6259;353.3865;-11.421;1.0553;5.0;1004.8633;43.59497;50.74793;-1.8690368;85.0;35.556015;;0.0;3.216;;17 / 23;736;2018-03-13 16:46:09:749
-0.991791;2.186493;9.375092;-0.235466;1.957899;9.60633;-0.859156;-0.312616;-0.157424;-18.8404;-15.5191;7.433;2147.4836;2.8488;9.7565;-44.9265;353.3865;-11.421;1.0553;5.0;1004.8633;43.59497;50.74793;-1.8690368;85.0;35.556015;;0.0;3.216;;17 / 23;776;2018-03-13 16:46:09:789
0.63147;2.813782;9.707886;-0.091147;1.807497;9.638207;0.679012;1.068629;-0.120545;-26.0426;1.2047;-25.6474;2147.4836;2.8488;9.7565;-44.9265;354.2384;-11.5165;1.4041;5.0;1004.8934;52.4402;50.74793;-1.8690368;85.0;35.556015;;0.0;3.216;;17 / 23;817;2018-03-13 16:46:09:830
-0.410004;1.101929;10.342346;-0.104259;1.629794;9.66971;-0.310186;-0.588929;0.470979;-19.3894;-14.664;-9.9002;2147.4836;3.299;9.7565;-44.9265;352.0308;-9.8879;0.6851;5.0;1004.8934;52.4402;50.74793;-1.8690368;85.0;35.556015;;0.0;3.216;;17 / 23;856;2018-03-13 16:46:09:869
0.155029;1.990173;9.954498;0.117771;1.557262;9.6815;0.229672;0.20048;0.438432;10.0296;5.7824;-6.849;2147.4836;3.299;11.557;-45.076;350.0541;-9.1125;-0.4161;5.0;1004.86;52.4402;50.74793;-1.8690368;85.0;35.556015;;0.0;3.216;;17 / 23;897;2018-03-13 16:46:09:910
-0.1203;1.719635;9.873093;0.022938;1.608886;9.673745;-0.264417;-0.067808;6.07E-4;5.3295;12.9234;-5.3225;2147.4836;2.0981;11.4059;-45.076;353.4091;-9.4427;-0.1359;5.0;1004.81;52.4402;50.74793;-1.8690368;85.0;35.556015;;0.0;3.216;;17 / 23;936;2018-03-13 16:46:09:949
-0.091568;1.389237;9.827606;0.028546;1.616665;9.672433;-0.377484;-0.383272;0.187216;-2.6044;-22.9652;-6.6051;2147.4836;2.0981;10.8063;-44.7754;353.3405;-9.4887;-0.1691;5.0;1004.81;52.4402;50.74793;-1.8690368;85.0;35.556015;;0.0;3.216;;17 / 23;977;2018-03-13 16:46:09:990
-0.266342;1.87764;8.929779;0.202568;1.564069;9.679;-0.497313;0.298729;-0.954188;-13.0414;-20.3406;-3.1867;2147.4836;1.6479;10.8063;-44.7754;353.3405;-9.4887;-0.1691;5.0;1004.8;52.4402;50.74793;-1.8690368;85.0;35.556015;;0.0;3.216;;17 / 23;1017;2018-03-13 16:46:10:030
-0.295074;0.996582;9.906601;0.16093;1.453694;9.696971;-0.393808;-0.490588;0.038089;-15.9711;13.7172;-1.4163;2147.4836;1.1993;11.2564;-44.7754;353.8549;-9.1773;-1.1989;5.0;1004.8033;52.4402;50.74793;-1.8690368;85.0;35.556015;;0.0;3.216;;17 / 23;1057;2018-03-13 16:46:10:070
0.042511;1.286285;10.167572;0.123252;1.412188;9.703655;-0.108581;-0.186995;0.175156;14.9123;4.5007;2.1236;2147.4836;1.4984;11.4059;-45.076;354.6375;-8.2909;-0.8031;5.0;1004.8033;52.4402;50.74793;-1.8690368;85.0;35.556015;;0.0;3.216;;17 / 23;1097;2018-03-13 16:46:10:110
0.107147;1.554428;9.343964;0.063687;1.502293;9.690688;0.251164;0.067667;-0.340575;0.1416;12.7407;8.5931;2147.4836;1.799;12.6068;-45.2255;352.9571;-8.7058;-0.5459;5.0;1004.8167;58.65056;50.74793;-1.8690368;85.0;35.556015;;0.0;3.216;;17 / 23;1137;2018-03-13 16:46:10:150
-0.125092;1.777084;9.571426;0.015841;1.460144;9.697325;-0.140571;0.300429;-0.337317;-13.8964;12.2519;9.1422;2147.4836;2.3987;12.0071;-45.2255;353.4422;-8.6823;-0.184;5.0;1004.83;58.65056;50.74793;-1.8690368;85.0;35.556015;;0.0;3.216;;17 / 23;1176;2018-03-13 16:46:10:189
0.066452;1.377258;9.92337;-0.012578;1.371739;9.71023;0.142588;0.03733;0.158897;-13.6525;-9.5373;11.1565;2147.4836;2.3987;11.8561;-44.1757;354.0304;-8.2562;0.1268;5.0;1004.83;58.65056;50.74793;-1.8690368;85.0;35.556015;;0.0;3.216;;17 / 23;1217;2018-03-13 16:46:10:230
0.085602;1.370071;10.162781;0.105503;1.278347;9.722402;0.089201;0.103068;0.286734;-7.8535;0.167;10.5462;2147.4836;2.3987;11.8561;-44.6259;352.354;-7.6413;-0.5089;5.0;1004.8267;58.65056;50.74793;-1.8690368;85.0;35.556015;;0.0;3.216;;17 / 23;1258;2018-03-13 16:46:10:271
0.073624;1.142624;9.918579;0.104609;1.234909;9.728024;-0.061334;-0.090691;-0.047062;-6.2667;-8.0721;9.5085;2147.4836;2.2491;12.3062;-44.6259;352.1812;-7.3341;-0.5384;5.0;1004.84;58.65056;50.74793;-1.8690368;85.0;35.556015;;0.0;3.216;;17 / 23;1296;2018-03-13 16:46:10:309
0.023346;1.216843;10.04068;0.147459;1.221337;9.729182;0.048542;-0.053382;0.197688;4.8417;1.3271;3.2217;2147.4836;2.2491;12.9059;-44.6259;351.7894;-7.1157;-0.8471;5.0;1004.84;58.65056;50.74793;-1.8690368;85.0;35.556015;;0.0;3.216;;17 / 23;1337;2018-03-13 16:46:10:350
0.040115;1.422745;9.578598;0.114168;1.274187;9.722849;-0.05251;0.112221;-0.282658;8.1377;1.7538;0.9022;2147.4836;2.2491;13.2065;-44.6259;352.0953;-7.3344;-0.7481;5.0;1004.8533;58.65056;50.747936;-1.8690394;85.0;35.556015;;0.0;3.216;;17 / 23;1376;2018-03-13 16:46:10:389
0.042511;1.312622;9.856323;0.13119;1.323242;9.71608;0.092919;-0.172368;0.055611;17.2317;-4.8373;-6.0552;2147.4836;2.2491;12.6068;-44.6259;352.1653;-7.7548;-0.7736;5.0;1004.8566;58.65056;50.747936;-1.8690394;85.0;35.556015;;0.0;3.216;;17 / 23;1420;2018-03-13 16:46:10:433
-0.194519;1.374863;9.511566;0.159714;1.432971;9.700075;-0.262946;-0.091184;-0.365379;4.2926;-3.678;0.7807;2147.4836;2.2491;12.6068;-44.9265;352.1653;-7.7548;-0.7736;5.0;1004.8566;58.65056;50.747936;-1.8690394;85.0;35.556015;;0.0;3.216;;17 / 23;1456;2018-03-13 16:46:10:469
0.368118;1.291061;10.069412;0.213917;1.422874;9.700519;0.016935;-0.153849;0.04038;-2.2381;-14.0538;2.0624;2147.4836;2.8488;11.7065;-45.8252;351.547;-8.4023;-0.9433;5.0;1004.8533;51.21437;50.747936;-1.8690394;85.0;35.556015;;0.0;3.216;;17 / 23;1496;2018-03-13 16:46:10:509
0.236435;1.240784;9.856323;0.35362;1.426196;9.695942;-0.136454;-0.302266;0.017521;1.3018;-22.2937;-0.9897;2147.4836;2.8488;11.557;-45.8252;347.1778;-8.3207;-1.5142;5.0;1004.86;51.21437;50.747936;-1.8690394;85.0;35.556015;;0.0;3.216;;17 / 23;1537;2018-03-13 16:46:10:550
0.617111;1.508942;9.892242;0.608634;1.401059;9.686949;0.082127;0.101751;0.058274;-8.4638;-52.9944;-6.2387;2147.4836;2.0981;11.557;-45.8252;347.8453;-8.3499;-2.4841;5.0;1004.86;51.21437;50.747936;-1.8690394;85.0;35.556015;;0.0;3.216;;17 / 23;1576;2018-03-13 16:46:10:589
0.758377;0.86969;9.952103;1.289539;1.196777;9.64755;-0.538669;-0.467945;-0.122322;-44.292;-126.1756;-6.5439;2147.4836;-3.9017;13.2065;-45.076;351.4131;-7.5873;-5.867;5.0;1004.8734;51.21437;50.747936;-1.8690394;85.0;35.556015;;0.0;3.216;;17 / 23;1616;2018-03-13 16:46:10:629
0.518951;1.269516;9.590576;2.075687;0.955362;9.536729;-1.602758;0.326956;-0.171051;-23.9671;-115.4335;2.9165;2147.4836;-4.8019;12.7563;-45.076;349.216;-5.9918;-10.5964;5.0;1004.8633;51.21437;50.747936;-1.8690394;85.0;35.556015;;0.0;3.216;;17 / 23;1657;2018-03-13 16:46:10:670
1.172562;0.639847;6.509232;2.925734;0.787494;9.32686;-1.537917;-0.327414;-3.02718;-44.0472;-123.3071;40.7582;2147.4836;-7.2021;13.2065;-44.9265;346.4211;-5.3485;-14.0669;5.0;1004.8633;51.21437;50.747936;-1.8690394;85.0;35.556015;;0.0;3.216;;17 / 23;1697;2018-03-13 16:46:10:710
4.72078;-0.334595;12.066177;3.540933;0.326705;9.139226;1.24917;-0.755118;3.117391;-8.8913;-65.2621;18.1148;2147.4836;-10.3516;15.4572;-42.9764;341.1989;-2.2018;-20.4817;5.0;1004.8499;51.21437;50.747936;-1.8690394;85.0;35.556015;;0.0;3.216;;17 / 23;1739;2018-03-13 16:46:10:752
3.906738;1.056442;10.241791;4.009381;0.450721;8.938238;-0.241298;0.413172;1.120777;19.1849;-155.3506;-37.4884;2147.4836;-14.8514;15.7562;-43.8751;346.5777;-2.6343;-24.1593;5.0;1004.8267;51.21437;50.747936;-1.8690394;85.0;35.556015;;0.0;3.216;;17 / 23;1777;2018-03-13 16:46:10:790
6.636139;0.577591;6.229111;5.675082;0.520367;7.980794;0.583631;0.130017;-1.719391;-83.1714;-275.4675;-41.2119;2147.4836;-20.8511;15.7562;-41.9266;338.6027;-3.0417;-35.4163;5.0;1004.8267;51.21437;50.747936;-1.8690394;85.0;35.556015;;0.0;3.216;;17 / 23;1817;2018-03-13 16:46:10:830
5.585083;-0.846954;6.636124;6.482797;0.118856;7.357284;-1.008576;0.725466;2.282629;-17.1312;-71.854;44.1766;2147.4836;-24.1516;15.7562;-37.8754;338.6565;-1.1193;-40.7075;5.0;1004.8167;49.49883;50.747936;-1.8690394;85.0;35.556015;;0.0;3.216;;17 / 23;1856;2018-03-13 16:46:10:869
6.197998;0.330994;5.944199;6.730551;0.001277;7.132326;-2.082898;0.164483;-0.186161;16.8042;-148.6363;1.147;2147.4836;-25.2014;17.7063;-37.2757;338.1729;-0.0075;-43.3399;5.0;1004.81;49.49883;50.747936;-1.8690394;85.0;35.556015;;0.0;3.216;;17 / 23;1896;2018-03-13 16:46:10:909
8.52037;0.656601;5.434235;7.721613;0.296166;6.038159;0.810691;0.293567;-0.730022;-5.9616;-215.8969;-81.373;2147.4836;-26.5518;17.8558;-34.1263;332.216;-1.7306;-51.9752;5.0;1004.81;49.49883;50.747936;-1.8690394;85.0;35.556015;;0.0;3.216;;17 / 23;1937;2018-03-13 16:46:10:950
5.937027;0.500977;3.765488;8.413755;0.539807;5.008764;-2.705932;0.323756;-1.195739;-8.0371;-157.9752;1.2686;2147.4836;-34.0515;17.2562;-30.8258;340.6618;-3.0173;-56.1395;5.0;1004.79;49.49883;50.747936;-1.8690394;85.0;35.556015;;0.0;3.216;;17 / 23;1976;2018-03-13 16:46:10:989
8.295319;-0.200516;1.814209;9.19451;0.168272;3.406325;-1.195758;-0.346104;-1.860745;-26.6528;-286.0269;73.0465;2147.4836;-37.8021;15.4572;-26.4755;334.6169;-2.0885;-65.4951;5.0;1004.7866;49.49883;50.747936;-1.8690394;85.0;35.556015;;0.0;3.216;;17 / 23;2017;2018-03-13 16:46:11:030
13.052597;1.003769;4.557968;9.548061;-0.156167;2.231708;3.439074;0.53016;0.686824;-22.6854;-151.1393;9.936;2147.4836;-39.0015;17.1066;-20.3262;327.0;0.9124;-76.8442;5.0;1004.7866;49.49883;50.747936;-1.8690394;85.0;35.556015;;0.0;3.216;;17 / 23;2056;2018-03-13 16:46:11:069
7.893097;-1.002579;0.140656;9.718688;-0.007663;1.310515;-2.232507;-1.400617;-1.178706;-27.5682;-171.8908;-38.465;2147.4836;-40.0513;18.457;-16.7252;327.3738;0.0448;-82.3203;5.0;1004.77;49.49883;50.747936;-1.8690394;85.0;35.556015;;0.0;3.216;;17 / 23;2097;2018-03-13 16:46:11:110
12.276871;0.582382;2.039261;9.797835;0.399093;-0.116274;2.145366;0.22126;1.996977;-29.0326;-185.7462;-74.9035;2147.4836;-42.1509;18.1564;-12.6755;327.3738;0.0448;-82.3203;5.0;1004.75;49.49883;50.747936;-1.8690394;85.0;35.556015;;0.0;3.216;;17 / 23;2137;2018-03-13 16:46:11:150
7.8069;0.204102;-0.469864;9.713697;0.900728;-1.001582;-2.3277;-0.74368;0.425985;-36.4795;-69.108;-35.0475;2147.4836;-46.051;15.3061;-7.1259;329.7424;-2.3324;-90.6799;5.0;1004.75;50.43897;50.747936;-1.8690394;85.0;35.556015;;0.0;3.216;;17 / 23;2176;2018-03-13 16:46:11:189
9.094986;0.414795;-0.477051;9.697742;0.793792;-1.222324;-0.846723;-0.483379;0.67743;15.401;2.8527;25.3169;2147.4836;-45.0012;15.1566;-5.3253;330.9927;-5.3276;-96.4228;5.0;1004.7433;50.43897;50.747936;-1.8690394;85.0;35.556015;;0.0;3.216;;17 / 23;2217;2018-03-13 16:46:11:230
9.039917;0.831375;-1.171356;9.718155;0.677527;-1.126411;-0.280734;0.441966;0.003737;1.4845;32.5156;19.5791;2147.4836;-45.0012;15.3061;-5.4764;330.2349;-4.6428;-97.1838;5.0;1004.7567;50.43897;50.747936;-1.8690394;85.0;35.556015;;0.0;3.216;;17 / 23;2257;2018-03-13 16:46:11:270
9.581009;1.305435;-0.553665;9.73909;0.54449;-1.011948;-1.378916;0.291976;-0.46988;1.4845;4.6834;5.1748;2147.4836;-44.4015;16.2064;-6.3751;330.3756;-3.4749;-96.0023;5.0;1004.7567;50.43897;50.747936;-1.8690394;85.0;35.556015;;0.0;3.216;;17 / 23;2296;2018-03-13 16:46:11:309
9.413406;0.984604;-0.479446;9.738852;0.675491;-0.932134;-0.249749;0.338692;0.548737;6.3061;23.7879;-22.0463;2147.4836;-43.8019;15.9058;-6.3751;330.4444;-3.2909;-95.8624;5.0;1004.78;50.43897;50.747936;-1.8690394;85.0;35.556015;;0.0;3.216;;17 / 23;2337;2018-03-13 16:46:11:350
8.024765;0.249588;-1.398819;9.746687;0.692076;-0.83278;-1.806655;-0.463598;-0.553294;-2.2993;14.205;12.6218;2147.4836;-43.8019;15.9058;-6.3751;332.565;-4.1382;-95.1244;5.0;1004.8133;50.43897;50.747936;-1.8690394;85.0;35.556015;;0.0;3.216;;17 / 23;2377;2018-03-13 16:46:11:390
10.165192;0.623093;-0.175369;9.767029;0.579366;-0.663228;0.284973;0.052504;0.545904;2.0947;46.1874;7.0676;2147.4836;-43.8019;16.3559;-8.3252;328.7121;-3.5497;-94.3743;5.0;1004.8133;50.43897;50.747936;-1.8690405;85.0;35.556015;;0.0;3.216;;17 / 23;2416;2018-03-13 16:46:11:429
9.401443;-0.207703;0.346558;9.787489;0.608644;0.070752;0.076106;-0.476858;0.723828;18.0256;133.9565;-8.6797;2147.4836;-43.8019;16.3559;-10.1257;328.6666;-3.3358;-92.9659;5.0;1004.8499;47.3853;50.747936;-1.8690405;85.0;35.556015;;0.0;3.216;;17 / 23;2459;2018-03-13 16:46:11:472
8.228272;0.953491;0.751175;9.755097;0.63523;0.777786;-1.342325;-0.393116;-0.599591;22.6024;155.8682;-3.3091;2147.4836;-43.6508;15.9058;-14.0259;331.7024;-3.6482;-87.5656;5.0;1004.8667;47.3853;50.747936;-1.8690405;85.0;35.556015;;0.0;3.216;;17 / 23;2496;2018-03-13 16:46:11:509
8.503616;1.755539;2.791046;9.553949;0.714545;2.093288;-1.199056;1.077928;0.811459;42.6221;200.6681;-11.9145;2147.4836;-41.1011;16.2064;-20.1752;333.2386;-3.939;-80.4323;5.0;1004.9133;47.3853;50.747936;-1.8690405;85.0;35.556015;;0.0;3.216;;17 / 23;2537;2018-03-13 16:46:11:550
7.574662;-0.09996;4.361634;9.10554;0.959051;3.512795;-1.40333;0.746405;0.547503;153.6449;263.839;8.1656;2147.4836;-37.6511;15.1566;-28.1265;330.5206;-4.9209;-72.5042;5.0;1004.9133;47.3853;50.747936;-1.8690405;85.0;35.556015;;0.0;3.216;;17 / 23;2577;2018-03-13 16:46:11:590
8.656845;-0.387268;5.69281;7.991705;1.348359;5.521321;0.37816;-1.961969;-0.260977;235.31;379.9894;74.4497;2147.4836;-32.8506;10.9558;-35.0265;319.0094;-6.2998;-64.9501;5.0;1004.9666;47.3853;50.747936;-1.8690405;85.0;35.556015;;0.0;3.216;;17 / 23;2617;2018-03-13 16:46:11:630
7.15567;0.445908;5.999268;6.686482;1.769906;6.95189;0.884413;-1.315075;-1.157534;192.8295;461.8983;68.2241;2147.4836;-19.9509;8.5571;-43.576;319.805;-10.3977;-43.8851;5.0;1005.05;47.3853;50.747936;-1.8690405;85.0;35.556015;;0.0;3.216;;17 / 23;2656;2018-03-13 16:46:11:669
4.131806;4.470566;6.102219;4.392221;1.996412;8.537746;-1.113542;0.59805;-4.320879;-178.996;95.321;-29.7984;2147.4836;-11.5509;7.8064;-46.1258;329.0213;-11.7462;-27.2234;5.0;1005.05;47.3853;50.747936;-1.8690405;85.0;35.556015;;0.0;3.216;;17 / 23;2697;2018-03-13 16:46:11:710
2.633026;0.544083;9.3703;3.180643;1.225681;9.195195;-0.443171;-0.764482;0.123383;-75.908;157.2111;-31.9342;2147.4836;-8.7021;8.8562;-46.2753;336.0867;-7.1799;-19.0806;5.0;1005.1667;47.3853;50.747936;-1.8690405;85.0;35.556015;;0.0;3.216;;17 / 23;2737;2018-03-13 16:46:11:750
2.654572;1.549637;11.419739;2.845967;1.127104;9.316679;-0.036428;0.460154;2.133452;18.1471;5.1721;-50.55;2147.4836;-7.0511;12.4557;-46.1258;336.0867;-7.1799;-19.0806;5.0;1005.3333;35.87659;50.747936;-1.8690405;85.0;35.556015;;0.0;3.216;;17 / 23;2778;2018-03-13 16:46:11:791
1.531693;0.943909;8.628098;2.440827;1.200861;9.421819;-0.866165;-0.355673;-0.829431;-31.1693;71.0287;-29.1873;2147.4836;-6.0013;12.3062;-46.1258;337.0348;-6.5997;-16.9863;5.0;1005.3333;35.87659;50.747936;-1.8690405;85.0;35.556015;;0.0;3.216;;17 / 23;2816;2018-03-13 16:46:11:829
2.156586;0.80983;10.797256;2.028291;0.95065;9.547393;0.278255;-0.114389;1.105187;-42.5828;64.8643;-26.8076;2147.4836;-4.2007;12.3062;-45.9763;339.08;-7.0337;-14.5238;5.0;1005.4766;35.87659;50.747936;-1.8690405;85.0;35.556015;;0.0;3.216;;17 / 23;2856;2018-03-13 16:46:11:869
2.50853;0.836166;10.936111;1.756757;0.955752;9.600559;0.748248;-0.07784;1.31077;16.8654;18.7224;-33.9486;2147.4836;-3.302;12.4557;-44.7754;339.6085;-5.3177;-11.4356;5.0;1005.5267;35.87659;50.747936;-1.8690405;85.0;35.556015;;0.0;3.216;;17 / 23;2896;2018-03-13 16:46:11:909
2.185318;1.286285;8.326432;1.690601;1.093718;9.597711;0.648716;0.113209;-1.0612;-2.9707;9.811;-10.0226;2147.4836;-3.302;12.6068;-44.9265;342.4794;-5.5929;-10.3695;5.0;1005.5267;35.87659;50.747936;-1.8690405;85.0;35.556015;;0.0;3.216;;17 / 23;2937;2018-03-13 16:46:11:950
2.156586;1.018127;9.444519;1.615281;0.989991;9.621911;0.511704;-0.023107;-0.384295;-32.6337;28.6094;-16.3706;2147.4836;-3.302;12.6068;-44.9265;345.2349;-6.2017;-9.7747;5.0;1005.5466;35.87659;50.747936;-1.8690405;85.0;35.556015;;0.0;3.216;;17 / 23;2976;2018-03-13 16:46:11:989
0.621902;0.742798;9.391861;1.332357;0.83755;9.679552;-0.662576;-0.100637;-0.331902;-8.6473;35.1402;-13.7461;2147.4836;-3.302;12.7563;-44.9265;348.3832;-4.9763;-8.2195;5.0;1005.58;35.87659;50.747936;-1.8690405;85.0;35.556015;;0.0;3.216;;17 / 23;3017;2018-03-13 16:46:12:030
0.916382;0.884048;9.015961;1.420094;0.963866;9.655293;-1.974476;-1.753595;-0.672973;50.4346;-68.3753;17.6872;2147.4836;-2.8519;12.7563;-44.9265;349.9183;-5.0087;-7.6295;5.0;1005.58;35.87659;50.747936;-1.8690405;85.0;35.556015;;0.0;3.216;;17 / 23;3057;2018-03-13 16:46:12:070
1.969833;1.947083;10.158005;1.786354;1.345802;9.548201;0.160922;0.532831;0.503057;25.0442;11.2754;-18.69;2147.4836;-2.7008;12.7563;-45.5261;344.3214;-7.2315;-10.256;5.0;1005.59;49.74394;50.747936;-1.8690405;85.0;35.556015;;0.0;3.216;;17 / 23;3097;2018-03-13 16:46:12:110
1.538879;2.141007;9.492416;1.529656;1.596791;9.554098;-0.003356;0.698493;-0.040786;34.1995;38.4974;-42.1885;2147.4836;-3.1509;12.4557;-45.5261;345.4111;-8.7565;-9.837;5.0;1005.5767;49.74394;50.747936;-1.8690405;85.0;35.556015;;0.0;3.216;;17 / 23;3137;2018-03-13 16:46:12:150
1.256363;1.173752;9.908997;1.38687;1.757449;9.547688;-0.244245;-0.332244;0.30887;30.2321;31.0512;-22.4126;2147.4836;-3.1509;11.2564;-45.5261;345.4111;-8.7565;-9.837;5.0;1005.5767;49.74394;50.747936;-1.8690405;85.0;35.556015;;0.0;3.216;;17 / 23;3177;2018-03-13 16:46:12:190
1.174957;1.405991;9.810837;1.155941;1.905991;9.549942;-0.099657;-0.69522;0.128571;2.3999;27.145;13.5983;2147.4836;-2.2507;8.8562;-46.1258;348.7152;-11.2072;-6.9016;5.0;1005.5;49.74394;50.747936;-1.8690405;85.0;35.556015;;0.0;3.216;;17 / 23;3217;2018-03-13 16:46:12:230
1.294678;1.99736;10.114899;0.907246;1.819109;9.593652;0.369;0.165299;0.461195;-16.1547;35.8728;0.5368;2147.4836;-1.651;8.8562;-46.1258;348.7152;-11.2072;-6.9016;5.0;1005.43;49.74394;50.747936;-1.8690405;85.0;35.556015;;0.0;3.216;;17 / 23;3257;2018-03-13 16:46:12:270
0.253189;1.793854;9.916183;0.705044;1.854199;9.603918;-0.36234;-0.045236;0.494425;32.2464;22.0787;-4.4072;2147.4836;0.7492;10.2066;-45.8252;346.7096;-10.8988;-4.1987;5.0;1005.43;49.74394;50.747936;-1.8690405;85.0;35.556015;;0.0;3.216;;17 / 23;3297;2018-03-13 16:46:12:310
0.77034;2.030884;9.434952;0.626027;2.011245;9.577754;0.141485;0.046867;-0.227989;14.2409;10.2376;1.94;2147.4836;0.7492;9.906;-45.8252;348.2299;-11.8348;-3.7397;5.0;1005.4001;49.74394;50.747936;-1.8690405;85.0;35.556015;;0.0;3.216;;17 / 23;3337;2018-03-13 16:46:12:350
0.03772;2.03566;9.185959;0.237073;1.854813;9.626727;0.101993;0.014463;0.145288;-19.9385;53.2068;-11.9145;2147.4836;1.0483;9.0057;-45.8252;353.0654;-10.9025;-1.4107;5.0;1005.4267;49.74394;50.747936;-1.8690423;85.0;35.556015;;0.0;3.216;;17 / 23;3380;2018-03-13 16:46:12:393
0.102356;2.74913;10.25856;0.105292;1.894415;9.621356;0.054933;0.646155;0.60468;37.6782;10.9703;-49.8785;2147.4836;1.799;9.3063;-45.8252;351.9555;-11.1382;-0.627;5.0;1005.4267;41.54498;50.747936;-1.8690423;85.0;35.556015;;0.0;3.216;;17 / 23;3417;2018-03-13 16:46:12:430
0.413605;1.159393;8.877106;-0.085727;2.254119;9.543689;0.320677;-1.246852;-0.351017;5.4519;17.6846;-6.7878;2147.4836;3.4485;9.3063;-45.6757;351.9555;-11.1382;-0.627;5.0;1005.4534;41.54498;50.747936;-1.8690423;85.0;35.556015;;0.0;3.216;;17 / 23;3456;2018-03-13 16:46:12:469
-0.658997;2.246353;9.913788;-0.734859;2.056611;9.560372;0.17402;0.171884;0.267864;-54.3626;147.7507;-1.7223;2147.4836;3.8986;8.5571;-44.9265;352.2643;-13.2886;0.5146;5.0;1005.5234;41.54498;50.747936;-1.8690423;85.0;35.556015;;0.0;3.216;;17 / 23;3497;2018-03-13 16:46:12:510
-1.530487;1.429932;11.407776;-1.819874;1.681164;9.488526;0.444076;-0.185265;1.74116;-78.8376;267.684;2.2451;2147.4836;7.6492;8.7067;-44.9265;1.0396;-11.2283;6.7454;5.0;1005.5234;41.54498;50.747936;-1.8690423;85.0;35.556015;;0.0;3.216;;17 / 23;3537;2018-03-13 16:46:12:550
-3.67569;0.718857;10.627258;-4.366327;1.095415;8.712384;0.97678;-0.30899;2.099427;-69.8651;370.7728;18.0536;2147.4836;17.099;11.8561;-41.0263;356.7824;-7.2792;21.2486;5.0;1005.5767;41.54498;50.747936;-1.8690423;85.0;35.556015;;0.0;3.216;;17 / 23;3577;2018-03-13 16:46:12:590
-6.213547;1.927933;6.851609;-6.317293;0.967889;7.438103;0.553157;0.855406;-0.332261;-16.2159;324.1422;26.415;2097.0;25.499;14.2563;-29.3259;352.3462;-5.6008;37.2094;5.0;1005.5867;41.54498;50.747936;-1.8690423;85.0;35.556015;;0.0;3.216;;17 / 23;3617;2018-03-13 16:46:12:630
-7.580627;0.43634;4.332901;-7.17873;1.065564;6.595514;0.113842;0.309486;-2.175631;13.6307;158.3091;-3.553;2097.0;28.7979;13.9572;-25.1251;356.1683;-6.2379;47.4245;5.0;1005.5867;41.54498;50.747936;-1.8690423;85.0;NaN;;0.0;3.216;;17 / 23;3658;2018-03-13 16:46:12:671
-8.69873;0.5345;5.726334;-7.962491;1.121679;5.613461;-0.601189;-0.531701;0.093265;2.6446;131.1484;14.7576;1994.0;31.4987;13.6566;-21.5256;356.2663;-6.4151;52.8513;5.0;1005.49;41.54498;50.747936;-1.8690423;85.0;NaN;;0.0;3.216;;17 / 23;3697;2018-03-13 16:46:12:710
-8.353958;1.152206;6.250656;-8.351469;1.267287;4.981701;0.082101;-0.159076;1.187461;6.6724;128.0972;40.4531;1912.0;32.8491;12.9059;-17.926;355.3387;-7.4249;59.1837;5.0;1005.46;41.98143;50.747936;-1.8690423;85.0;NaN;;0.0;3.216;;17 / 23;3737;2018-03-13 16:46:12:750
-7.247833;2.773071;5.530014;-8.789165;1.576479;4.054095;1.742859;1.28865;1.05336;18.2695;148.2997;32.7631;1870.0;33.7479;12.3062;-16.2765;355.3387;-7.4249;59.1837;5.0;1005.46;41.98143;50.747936;-1.8690423;85.0;NaN;;0.0;3.216;;17 / 23;3777;2018-03-13 16:46:12:790
-7.855972;2.763504;3.485352;-9.181412;1.587424;3.058128;1.268436;0.884853;0.419523;13.2031;124.4349;-20.5819;1870.0;34.7992;11.4059;-13.1256;358.0068;-9.2508;65.238;5.0;1005.4866;41.98143;50.747936;-1.8690423;85.0;NaN;;0.0;3.216;;17 / 23;3816;2018-03-13 16:46:12:829
-9.225449;1.738785;3.284241;-9.356232;1.479553;2.538157;0.307675;0.247408;0.781026;13.7531;101.6079;-28.4555;1908.9999;35.0983;11.557;-8.3252;357.9899;-9.3156;71.5782;5.0;1005.48;41.98143;50.747936;-1.8690423;85.0;NaN;;0.0;3.216;;17 / 23;3856;2018-03-13 16:46:12:869
-10.032303;1.343735;3.324951;-9.533772;1.324609;1.876963;-0.367847;0.013047;1.424606;24.19;72.7379;-20.1544;1968.0;34.7992;11.557;-7.7255;355.2263;-8.6775;74.8221;5.0;1005.48;41.98143;50.747936;-1.8690423;85.0;NaN;;0.0;3.216;;17 / 23;3897;2018-03-13 16:46:12:910
-10.087357;1.542465;2.731186;-9.644217;1.207955;1.303959;-0.334331;0.29648;1.510099;15.5226;85.1892;-18.9951;2012.0;34.7992;12.7563;-3.9764;0.3679;-7.7628;78.8623;5.0;1005.4134;41.98143;50.747936;-1.8690423;85.0;NaN;;0.0;3.216;;17 / 23;3936;2018-03-13 16:46:12:949
-10.271713;1.044464;1.730408;-9.690605;1.136156;0.985758;-0.462949;0.056283;0.995144;23.0299;68.8317;-21.68;2012.0;34.7992;12.7563;-2.7756;357.5898;-7.0755;82.3;5.0;1005.3533;41.98143;50.747936;-1.8690423;85.0;NaN;;0.0;3.216;;17 / 23;3977;2018-03-13 16:46:12:990
-9.416992;1.537674;-0.558441;-9.745313;0.990661;0.466756;0.111564;0.1386;-0.509574;1.6681;61.3856;-24.9157;2052.0;34.7992;13.6566;-0.8255;359.078;-6.0834;86.2918;5.0;1005.3533;41.98143;50.747936;-1.8690423;85.0;NaN;;0.0;3.216;;17 / 23;4017;2018-03-13 16:46:13:030
-10.295654;0.283112;0.459091;-9.776361;0.753178;0.160778;-0.713616;-0.592466;0.372595;2.3999;0.167;-31.7515;2092.0;34.7992;15.3061;1.4236;354.1795;-4.8282;88.8175;5.0;1005.3;40.32605;50.747936;-1.8690423;85.0;NaN;;0.0;3.216;;17 / 23;4057;2018-03-13 16:46:13:070
-11.459244;-0.834976;0.813431;-9.785124;0.636791;0.127424;-1.564211;-1.559155;0.731974;-11.2719;15.853;21.4711;2092.0;34.198;15.7562;1.1246;354.8875;-3.5955;89.1066;5.0;1005.2534;40.32605;50.747936;-1.8690423;85.0;NaN;;0.0;3.216;;17 / 23;4096;2018-03-13 16:46:13:109
-10.142426;1.429932;-0.146652;-9.767997;0.849875;0.185316;-0.143248;0.547563;-0.368402;-12.4924;-63.2486;24.767;2113.0;34.198;15.6067;1.1246;355.8428;-4.1579;89.4286;5.0;1005.2534;40.32605;50.747936;-1.8690423;85.0;NaN;;0.0;3.216;;17 / 23;4137;2018-03-13 16:46:13:150
-9.742599;1.401199;2.72879;-9.728356;0.972934;0.763452;-0.277468;-0.03371;2.900123;-3.9473;-83.146;10.8514;2113.0;34.198;14.7064;0.3738;353.4797;-5.5515;86.4899;5.0;1005.2034;40.32605;50.747936;-1.8690423;85.0;NaN;;0.0;3.216;;17 / 23;4176;2018-03-13 16:46:13:189
-10.362701;1.384445;2.544434;-9.721057;1.059085;0.741477;-0.276452;0.378586;1.430864;-22.5018;49.3618;27.0865;2081.0;34.198;12.7563;-1.5762;357.959;-6.1998;85.6382;5.0;1005.2333;40.32605;50.747936;-1.8690423;85.0;NaN;;0.0;3.216;;17 / 23;4217;2018-03-13 16:46:13:230
-9.318832;2.208054;0.648224;-9.716336;1.231139;0.497484;0.457668;0.937249;0.241816;-7.3657;14.3274;17.9312;2081.0;35.2493;12.7563;-1.4252;357.3809;-7.212;87.069;5.0;1005.2333;40.32605;50.747936;-1.8690423;85.0;NaN;;0.0;3.216;;17 / 23;4257;2018-03-13 16:46:13:270
-10.372269;0.867294;1.490982;-9.709285;1.286944;0.493922;-0.249012;-0.292447;1.234333;-2.9707;14.0835;5.3584;2108.0;35.2493;12.6068;0.2243;357.3809;-7.212;87.069;5.0;1005.25;40.32605;50.747936;-1.8690423;85.0;NaN;;0.0;3.216;;17 / 23;4296;2018-03-13 16:46:13:309
-9.986801;1.506546;0.222061;-9.704659;1.356758;0.386283;-0.346703;-0.053908;-0.228218;-3.7646;-8.1333;14.2697;2108.0;35.2493;12.0071;0.9735;351.4384;-7.6338;87.3156;5.0;1005.27;40.32605;50.747936;-1.8690423;85.0;NaN;;0.0;3.216;;17 / 23;4337;2018-03-13 16:46:13:350
-9.428955;1.863281;1.069611;-9.683131;1.433703;0.593175;0.329928;0.396033;0.234276;1.7896;-45.0596;4.443;2108.0;35.2493;11.4059;0.9735;351.1006;-8.1612;87.5728;5.0;1005.27;42.78795;50.747936;-1.8690423;85.0;NaN;;0.0;3.216;;17 / 23;4377;2018-03-13 16:46:13:390
-9.783295;1.494568;1.598724;-9.67068;1.427555;0.781286;0.063852;0.158217;0.715695;1.912;-53.5434;-7.0317;2108.0;35.3989;11.557;-0.8255;348.4429;-8.4088;85.9501;5.0;1005.2233;42.78795;50.747936;-1.8690444;85.0;NaN;;0.0;3.216;;10 / 14;4416;2018-03-13 16:46:13:429
-11.104904;1.310227;1.014542;-9.605327;1.404307;1.391408;-1.341293;-0.223793;-0.460854;5.9406;-134.6594;13.5371;2108.0;35.3989;12.3062;-3.3752;355.9546;-8.1454;83.1565;5.0;1005.22;42.78795;50.747936;-1.8690444;85.0;NaN;;0.0;3.216;;10 / 14;4456;2018-03-13 16:46:13:469
-8.825623;3.00293;1.945892;-9.260188;1.51707;2.849175;0.783935;1.371635;-1.032698;34.2607;-245.4383;0.6583;2034.0;35.3989;12.4557;-6.8253;351.9173;-8.4739;79.5395;5.0;1005.22;42.78795;50.747936;-1.8690444;85.0;NaN;;0.0;3.216;;10 / 14;4497;2018-03-13 16:46:13:510
-6.72351;1.245575;4.129395;-8.56719;1.413516;4.558028;1.9484;-0.257983;-3.082337;-75.4805;-322.3421;-16.1258;1891.0001;33.7479;12.0071;-16.2765;349.2537;-8.8861;70.3317;5.0;1005.19;42.78795;50.747936;-1.8690444;85.0;NaN;;0.0;3.216;;10 / 14;4537;2018-03-13 16:46:13:550
-6.381134;0.819412;8.994415;-6.813506;0.910796;6.994066;0.474238;0.402992;1.69945;-28.7274;-430.5576;-65.3818;1891.0001;30.748;12.6068;-24.826;2.2352;-7.434;56.8856;5.0;1005.19;42.78795;50.747936;-1.8690444;85.0;NaN;;0.0;3.216;;10 / 14;4576;2018-03-13 16:46:13:589
-3.742737;-1.033707;9.315247;-4.942714;0.538966;8.45278;1.047134;-1.473718;0.931747;-73.1007;-373.9176;-1.7223;1960.0;22.1985;16.507;-35.1761;357.9305;-4.2507;36.93;5.0;1005.19;42.78795;50.747936;-1.8690444;85.0;NaN;;0.0;3.216;;10 / 14;4617;2018-03-13 16:46:13:630
-0.400421;0.951096;12.003922;-3.007724;0.280115;9.329819;1.401357;-0.328233;0.247724;12.7765;-263.505;0.292;2147.4836;14.8483;16.507;-37.8754;351.7985;-1.6368;17.8682;5.0;1005.2867;42.78795;50.747936;-1.8690444;85.0;NaN;;0.0;3.216;;10 / 14;4657;2018-03-13 16:46:13:670
0.380081;0.591965;11.764511;-0.631719;1.0465;9.730167;1.005902;-0.603778;1.702765;140.8282;-228.9584;-72.2177;2147.4836;6.749;13.8062;-42.0761;354.7295;-4.1707;7.3445;5.0;1005.3933;50.89127;50.747936;-1.8690444;85.0;NaN;;0.0;3.216;;10 / 14;4698;2018-03-13 16:46:13:711
-0.55365;1.808212;9.178772;-0.190089;1.585721;9.675729;-0.903486;-0.734975;-1.13197;34.9933;-47.0127;7.9217;2147.4836;3.4485;12.9059;-43.576;354.7295;-4.1707;7.3445;5.0;1005.3933;50.89127;50.747936;-1.8690444;85.0;NaN;;0.0;3.216;;10 / 14;4736;2018-03-13 16:46:13:749
2.008148;1.678925;11.711838;0.107121;1.651247;9.666039;1.594238;0.710306;2.284167;-55.6443;-1.9076;33.0682;2147.4836;3.1479;10.9558;-45.5261;352.1432;-10.0088;0.5848;5.0;1005.4733;50.89127;50.747936;-1.8690444;85.0;NaN;;0.0;3.216;;10 / 14;4776;2018-03-13 16:46:13:789
-2.296631;-0.334595;8.426987;-0.255295;0.886036;9.763204;-2.410969;-1.585366;-1.691395;-89.397;63.2775;151.5371;2147.4836;3.1479;10.9558;-45.076;349.2426;-9.6937;-0.6349;5.0;1005.49;50.89127;50.747936;-1.8690444;85.0;NaN;;0.0;3.216;;10 / 14;4816;2018-03-13 16:46:13:829
-0.103546;2.303818;9.810837;-0.212865;0.762805;9.77462;0.196065;1.529796;-0.083018;17.2317;-19.608;111.4984;2147.4836;4.3488;12.3062;-43.576;353.51;-5.1838;1.4979;5.0;1005.49;50.89127;50.747936;-1.8690444;85.0;NaN;;0.0;3.216;;10 / 14;4857;2018-03-13 16:46:13:870
-0.821808;2.100311;8.517975;0.147042;1.208595;9.73078;-1.117589;0.82885;-1.470314;54.6459;-98.0994;-15.1492;2147.4836;6.1493;12.6068;-43.1259;342.7612;-4.4612;1.2476;5.0;1005.44;50.89127;50.747936;-1.8690444;85.0;NaN;;0.0;3.216;;10 / 14;4897;2018-03-13 16:46:13:910
0.087997;0.539291;11.043854;0.268611;1.332124;9.712038;-0.280408;-0.962386;0.324233;-3.5207;86.7148;-20.0932;2147.4836;5.5481;12.6068;-43.2755;339.9196;-7.0793;-0.8657;5.0;1005.3667;50.89127;50.747936;-1.8690444;85.0;NaN;;0.0;3.216;;10 / 14;4938;2018-03-13 16:46:13:951
0.152634;1.968628;9.454102;0.114899;1.326085;9.715899;-0.7509;0.232435;-1.379651;24.7391;-65.6284;-10.3889;2147.4836;5.098;11.557;-43.8751;342.4049;-7.7473;-0.8451;5.0;1005.3667;50.89127;50.747936;-1.8690444;85.0;NaN;;0.0;3.216;;10 / 14;4977;2018-03-13 16:46:13:990
1.189331;1.365295;10.560226;0.816804;1.63875;9.634195;0.345129;-0.269678;0.75013;15.8277;-41.9472;-29.676;2147.4836;2.0981;10.5072;-45.8252;344.891;-8.4269;-2.1855;5.0;1005.3133;56.92987;50.747936;-1.8690444;85.0;NaN;;0.0;3.216;;10 / 14;5017;2018-03-13 16:46:14:030
0.236435;2.093124;9.755768;0.706172;1.706501;9.631176;0.340229;0.233951;0.012764;20.5277;5.7824;-5.6888;2147.4836;1.4984;10.3561;-45.8252;341.2605;-9.7854;-4.9673;5.0;1005.3;56.92987;50.747936;-1.8690444;85.0;NaN;;0.0;3.216;;10 / 14;5057;2018-03-13 16:46:14:070
1.170166;2.15538;10.088562;0.840422;1.922707;9.579524;0.433082;0.16167;0.337865;47.81;-38.6512;-26.1973;2147.4836;1.4984;10.2066;-45.8252;346.2468;-10.0213;-4.1935;5.0;1005.3;56.92987;50.747936;-1.8690444;85.0;NaN;;0.0;3.216;;10 / 14;5097;2018-03-13 16:46:14:110
0.183762;2.196076;9.566635;1.082943;2.227091;9.488819;-0.971477;-0.119336;-0.162149;25.8983;-25.1622;-12.9522;2147.4836;1.1993;7.9559;-45.6757;343.722;-11.8187;-5.3764;5.0;1005.28;56.92987;50.747936;-1.8690444;85.0;NaN;;0.0;3.216;;10 / 14;5137;2018-03-13 16:46:14:150
1.313828;2.387619;10.447693;1.195294;2.474321;9.413788;0.218274;-0.109147;1.060207;38.7771;-21.1948;-16.0655;2147.4836;0.5981;7.3563;-45.9763;339.8101;-13.5375;-6.7809;5.0;1005.26;56.92987;50.747936;-1.8690444;85.0;NaN;;0.0;3.216;;10 / 14;5178;2018-03-13 16:46:14:191
1.268341;2.337341;10.995972;1.272903;2.708974;9.338714;-0.031714;-0.426887;1.447631;70.6371;-29.1296;-21.9851;2147.4836;-0.9018;7.0572;-45.9763;342.4196;-14.6143;-7.2363;5.0;1005.26;56.92987;50.747936;-1.8690444;85.0;NaN;;0.0;3.216;;10 / 14;5217;2018-03-13 16:46:14:230
1.529297;2.801804;11.175537;1.332098;3.476077;9.072639;0.162527;-0.742702;1.883723;129.8414;4.8058;-27.6617;2147.4836;-1.5015;1.8066;-46.7255;344.6972;-17.1505;-8.1307;5.0;1005.2534;56.92987;50.747936;-1.8690444;85.0;NaN;;0.0;3.216;;10 / 14;5257;2018-03-13 16:46:14:270
1.402405;3.046021;11.69986;1.151648;4.583859;8.592574;0.142506;-1.71533;2.66577;189.1681;28.0604;-25.1596;2147.4836;-1.651;0.0061;-47.4762;345.1285;-20.7604;-8.3528;5.0;1005.27;56.92987;50.747936;-1.8690444;85.0;NaN;;0.0;3.216;;10 / 14;5297;2018-03-13 16:46:14:310
1.196503;4.48494;8.996811;0.955569;5.832548;7.825514;0.204213;-1.41834;0.974829;232.5027;20.5531;-5.8112;2147.4836;-1.0513;-8.3939;-47.1756;345.3332;-27.8672;-7.6338;5.0;1005.27;56.92987;50.747936;-1.8690444;85.0;NaN;;0.0;3.216;;10 / 14;5336;2018-03-13 16:46:14:349
0.995392;5.516831;7.72789;0.915571;6.749724;7.055023;0.091478;-1.515368;0.617618;240.1324;0.8384;0.7807;2147.4836;-1.0513;-15.4434;-46.1258;346.5091;-39.9815;-7.0662;5.0;1005.2834;56.5774;50.747936;-1.8690444;85.0;NaN;;0.0;3.216;;10 / 14;5376;2018-03-13 16:46:14:389
0.02095;7.568665;3.590698;0.896571;7.682915;6.028214;-0.281665;-0.436226;-1.126714;202.5959;10.6651;1.147;1291.0001;-1.0513;-21.4432;-42.8253;345.1858;-48.1483;-8.0057;5.0;1005.2366;56.5774;50.747936;-1.8690444;85.0;NaN;;0.0;3.216;;10 / 14;5417;2018-03-13 16:46:14:430
0.384872;8.581406;2.539642;0.897714;8.555459;4.708358;-0.778894;-0.130733;-2.330599;142.6589;14.205;22.3873;1291.0001;0.7355;-25.1862;-37.2177;339.0699;-55.7932;-9.1418;5.0;1005.2366;56.5774;50.747936;-1.8690444;85.0;NaN;;0.0;3.216;;10 / 14;5457;2018-03-13 16:46:14:470
1.215668;8.274948;3.633804;0.965004;8.972521;3.838362;0.28431;-1.03104;-0.062986;123.5545;21.5908;12.2554;953.0;0.7355;-26.8356;-36.319;336.7161;-62.6892;-11.9336;5.0;1005.1533;56.5774;50.747936;-1.8690444;85.0;NaN;;0.0;3.216;;10 / 14;5496;2018-03-13 16:46:14:509
0.468674;8.93576;1.490982;0.994391;9.266499;3.051816;-0.354874;-0.708975;-1.282422;120.0758;-1.9688;6.0298;818.0;1.6357;-30.7358;-35.4187;333.9517;-67.9495;-15.3137;5.0;1005.0999;56.5774;50.747936;-1.8690444;85.0;NaN;;0.0;3.216;;10 / 14;5537;2018-03-13 16:46:14:550
0.818222;7.90625;3.245941;1.05808;9.479324;2.278878;-0.383504;-1.361863;-0.087548;95.4784;-2.7627;11.1565;763.0;1.1856;-32.5363;-30.6183;328.0175;-72.5357;-20.067;5.0;1005.0999;56.5774;50.747936;-1.8690444;85.0;NaN;;0.0;3.216;;10 / 14;5576;2018-03-13 16:46:14:589
0.229248;8.296509;1.895615;1.149384;9.619221;1.523117;-0.573554;-1.624334;0.861055;127.827;-2.274;16.0393;763.0;0.5859;-34.0363;-29.5685;322.6839;-75.1549;-24.9054;5.0;1005.08;56.5774;50.747936;-1.8690444;85.0;NaN;;0.0;3.216;;10 / 14;5617;2018-03-13 16:46:14:630
0.37291;9.041092;-0.244812;1.267274;9.678741;0.941487;-0.764917;-0.791037;-0.888563;99.3846;-1.5413;32.6407;723.0;-0.7645;-35.3867;-24.469;306.2231;-79.983;-44.5688;5.0;1005.0767;56.5774;50.747936;-1.8690444;85.0;NaN;;0.0;3.216;;10 / 14;5657;2018-03-13 16:46:14:670
1.18454;8.8759;0.133469;1.459588;9.695198;0.207691;-0.341688;-0.969043;-0.024516;88.1547;-37.7359;17.2597;684.0;-1.0651;-37.3367;-23.2681;276.0896;-81.3351;-72.2364;5.0;1005.0767;49.64046;50.747936;-1.8690444;85.0;NaN;;0.0;3.216;;10 / 14;5696;2018-03-13 16:46:14:709
1.50058;9.780914;-1.331772;1.555038;9.673984;-0.407772;0.091512;0.087366;-1.018887;61.9093;-24.2468;11.1565;620.0;-1.6647;-38.2355;-21.7682;276.0896;-81.3351;-72.2364;5.0;1005.0633;49.64046;50.747936;-1.8690444;85.0;NaN;;0.0;3.216;;10 / 14;5736;2018-03-13 16:46:14:749
1.445511;9.88147;-2.162567;1.562748;9.660512;-0.634607;0.206433;0.340521;-1.254351;21.9921;-26.8102;-9.3511;620.0;-3.6148;-38.3865;-18.9178;242.5482;-80.0962;-112.1013;5.0;1005.0366;49.64046;50.747936;-1.8690444;85.0;NaN;;0.0;3.216;;10 / 14;5777;2018-03-13 16:46:14:790
1.893219;9.675568;-1.463455;1.456308;9.670237;-0.732173;0.256576;-0.011635;-1.145634;-15.9711;-26.5663;-17.1636;573.0;-3.1647;-38.6856;-18.4677;235.874;-80.4322;-116.6914;5.0;1005.0366;49.64046;50.747936;-1.8690444;85.0;NaN;;0.0;3.216;;10 / 14;5816;2018-03-13 16:46:14:829
0.930756;9.692322;-1.130661;1.316233;9.695868;-0.654269;-0.336115;-0.197658;-0.41075;-16.2159;-28.7021;-18.6288;538.0;-3.1647;-40.036;-18.6188;237.475;-81.3797;-116.4309;5.0;1005.0367;49.64046;50.747936;-1.8690444;85.0;NaN;;0.0;3.216;;10 / 14;5857;2018-03-13 16:46:14:870
1.596344;10.367493;-0.51535;1.177245;9.721811;-0.520447;0.410157;0.502664;0.078595;-28.3611;-23.3927;-17.835;523.0;-3.1647;-39.7354;-19.8181;241.599;-82.458;-113.8497;5.0;1005.0433;49.64046;50.747936;-1.8690444;85.0;NaN;;0.0;3.216;;10 / 14;5896;2018-03-13 16:46:14:909
0.856537;9.812027;0.150238;1.085264;9.738379;-0.395705;0.104662;-0.004308;0.767319;-17.9854;-2.1524;-16.0655;523.0;-3.1647;-38.6856;-19.9692;246.5449;-83.2353;-110.0327;5.0;1005.0433;49.64046;50.747936;-1.8690444;85.0;NaN;;0.0;3.216;;10 / 14;5936;2018-03-13 16:46:14:949
0.657806;9.747391;-0.316635;0.978357;9.752391;-0.322617;-0.412707;-0.166006;-0.043149;-5.5953;-9.7201;-9.046;523.0;-3.0151;-38.6856;-20.2682;249.4006;-83.97;-108.2502;5.0;1005.0767;49.64046;50.747936;-1.8690444;85.0;NaN;;0.0;3.216;;10 / 14;5977;2018-03-13 16:46:14:990
0.957092;9.682739;-0.108337;0.937047;9.757404;-0.292204;0.194494;-0.330096;0.498134;1.9732;-3.0066;-8.6185;523.0;-2.7145;-38.6856;-20.2682;250.754;-84.2556;-107.3193;5.0;1005.1167;48.76177;50.747936;-1.8690444;85.0;NaN;;0.0;3.216;;10 / 14;6017;2018-03-13 16:46:15:030
0.566834;9.893433;-0.864899;0.873955;9.762904;-0.303789;-0.341084;0.013377;-0.632218;-5.4738;5.1109;-3.7357;517.0;-2.4139;-38.6856;-20.2682;246.904;-84.5861;-109.1676;5.0;1005.1367;48.76177;50.747936;-1.8690444;85.0;NaN;;0.0;3.216;;10 / 14;6056;2018-03-13 16:46:15:069
1.488602;9.795273;-0.103546;0.845446;9.767322;-0.23464;0.60606;-0.034845;0.190673;-8.8913;6.3314;-6.849;517.0;-2.4139;-38.6856;-20.2682;246.904;-84.5861;-109.1676;5.0;1005.1367;48.76177;50.747936;-1.8690444;85.0;NaN;;0.0;3.216;;10 / 14;6096;2018-03-13 16:46:15:109
0.461487;10.214264;-1.039688;0.800476;9.772257;-0.180591;-0.064257;0.210826;-0.491416;-17.9242;8.8344;-9.1684;517.0;-1.6647;-38.6856;-20.7184;250.8009;-84.8669;-105.5111;5.0;1005.14;48.76177;50.747936;-1.8690444;85.0;NaN;;0.0;3.216;;10 / 14;6137;2018-03-13 16:46:15:150
0.545288;10.068207;-0.568024;0.78439;9.774717;0.100126;-0.170279;0.246284;-0.677995;-68.9497;49.117;5.9686;528.0;-1.6647;-38.6856;-21.9177;258.4893;-85.3739;-98.5596;5.0;1005.1434;48.76177;50.747936;-1.8690444;85.0;NaN;;0.0;3.216;;10 / 14;6176;2018-03-13 16:46:15:189
-0.084396;9.879074;-1.738785;0.846066;9.73334;0.846545;-0.933254;0.071857;-2.466966;-130.1683;77.0716;17.3821;528.0;-1.0651;-37.1857;-23.2681;287.0032;-85.0148;-69.8077;5.0;1005.1434;48.76177;50.747936;-1.8690444;85.0;NaN;;0.0;3.216;;10 / 14;6217;2018-03-13 16:46:15:230
1.479019;8.832809;1.155808;0.862641;9.578411;1.918407;0.605891;-0.873028;-0.886761;-170.5733;20.9806;-9.1072;578.0;1.1856;-35.0861;-27.4689;320.5324;-79.8443;-30.2912;5.0;1005.1501;48.76177;50.747936;-1.8690444;85.0;NaN;;0.0;3.216;;10 / 14;6256;2018-03-13 16:46:15:269
-0.706879;8.353958;1.668167;0.705037;9.21917;3.268062;-1.192795;-1.056676;-1.918613;-209.8802;-12.8333;-23.0229;657.0;1.6357;-31.1859;-33.168;332.957;-72.9437;-15.2966;5.0;1005.1301;48.76177;50.747936;-1.8690444;85.0;NaN;;0.0;3.216;;10 / 14;6297;2018-03-13 16:46:15:310
1.433533;7.436981;4.373612;0.665198;8.552885;4.751428;0.68724;-1.057063;-0.800418;-255.9618;3.3414;-4.7735;766.0;1.7853;-26.236;-35.2692;332.957;-72.9437;-15.2966;5.0;1005.1301;50.26313;50.747936;-1.8690444;85.0;NaN;;0.0;3.216;;10 / 14;6337;2018-03-13 16:46:15:350
0.676971;6.900681;5.980118;0.603901;7.848999;5.847984;0.122389;-1.044603;-0.01573;-256.7548;-2.3352;-21.8636;766.0;1.7853;-20.9854;-39.0182;340.4049;-60.7096;-7.9696;5.0;1005.1133;50.26313;50.747936;-1.8690444;85.0;NaN;;0.0;3.216;;10 / 14;6377;2018-03-13 16:46:15:390
-0.163391;5.365998;5.21637;0.541688;6.511219;7.313071;-0.750189;-0.955092;-2.339262;-251.2006;-16.4956;-3.004;972.0;1.7853;-14.6866;-42.9184;343.1765;-51.9453;-5.5953;5.0;1005.11;50.26313;50.747936;-1.8690464;85.0;NaN;;0.0;3.216;;13 / 17;6417;2018-03-13 16:46:15:430
1.297058;3.759491;12.202652;0.6328;5.461358;8.120562;-0.459705;-1.749478;4.116533;-206.0352;-8.4384;-11.7318;1388.9999;2.2354;-7.3364;-45.7687;346.2535;-37.6854;-4.348;5.0;1005.11;50.26313;50.747936;-1.8690464;85.0;NaN;;0.0;3.216;;13 / 17;6456;2018-03-13 16:46:15:469
0.51416;4.362824;7.512406;0.620618;4.650565;8.611474;0.233123;-0.912016;-0.954428;-106.7914;-44.5717;-34.0701;2147.4836;2.2354;-2.6855;-45.7687;345.488;-29.8195;-4.0133;5.0;1005.1266;50.26313;50.747936;-1.8690464;85.0;NaN;;0.0;3.216;;13 / 17;6497;2018-03-13 16:46:15:510
2.108704;3.383606;9.518753;0.729057;3.680032;9.060697;1.480598;-0.291173;0.378868;-120.9518;-14.9088;-42.3712;2147.4836;1.9348;-0.1358;-45.4681;342.4826;-23.7726;-4.7062;5.0;1005.1567;50.26313;50.747936;-1.8690464;85.0;NaN;;0.0;3.216;;13 / 17;6537;2018-03-13 16:46:15:550
-0.9487;1.973419;8.46051;0.589742;3.135987;9.272982;-0.560131;-0.078098;-0.320953;-127.9101;37.0321;-8.6797;2147.4836;1.6357;5.7144;-45.4681;345.8804;-20.3773;-4.2539;5.0;1005.1567;50.26313;50.747936;-1.8690464;85.0;NaN;;0.0;3.216;;13 / 17;6577;2018-03-13 16:46:15:590
-1.54007;0.989395;10.605713;0.270176;2.116885;9.571634;-2.013313;-0.897403;0.690598;-131.5724;66.8786;53.6982;2147.4836;1.7853;7.9636;-45.018;348.533;-14.5353;-2.3656;5.0;1005.21;50.26313;50.747936;-1.8690464;85.0;NaN;;0.0;3.216;;13 / 17;6616;2018-03-13 16:46:15:629
-1.396408;-0.059265;12.444458;-0.220335;1.302179;9.717313;-1.177708;-1.340746;2.664374;-101.7871;82.8086;57.7268;2147.4836;6.1356;11.7142;-43.5181;343.2081;-8.6805;0.5387;5.0;1005.2767;46.05525;50.747936;-1.8690464;85.0;NaN;;0.0;3.216;;13 / 17;6657;2018-03-13 16:46:15:670
-2.382828;0.180161;9.774933;-0.623434;0.870524;9.748021;-1.634858;-0.604127;-0.17627;-87.6266;95.0771;89.2816;2147.4836;8.9859;15.4633;-42.3187;341.3901;-5.0928;3.6594;5.0;1005.2767;46.05525;50.747936;-1.8690464;85.0;NaN;;0.0;3.216;;13 / 17;6696;2018-03-13 16:46:15:709
2.21405;0.505768;14.572906;-0.762898;0.021361;9.776908;2.501388;0.251155;4.673527;-73.4662;-48.9046;5.8462;2147.4836;10.0357;16.8137;-38.5681;337.9067;-0.1248;4.4618;5.0;1005.3533;46.05525;50.747936;-1.8690464;85.0;NaN;;0.0;3.216;;13 / 17;6736;2018-03-13 16:46:15:749
-0.223251;0.649429;9.173981;-0.512533;-0.031373;9.793197;0.209396;0.032299;1.218584;7.6489;-26.9938;-24.3045;2147.4836;9.5856;18.3136;-39.1678;336.0263;0.1833;2.9959;5.0;1005.4367;46.05525;50.747936;-1.8690464;85.0;NaN;;0.0;3.216;;13 / 17;6777;2018-03-13 16:46:15:790
-0.065231;-0.052078;9.818024;-0.336308;-0.215049;9.798523;0.631928;0.372662;-0.845847;-54.3626;-16.7395;-23.0229;2147.4836;7.785;18.7637;-39.1678;336.0263;0.1833;2.9959;5.0;1005.4367;46.05525;50.747936;-1.8690464;85.0;NaN;;0.0;3.216;;13 / 17;6817;2018-03-13 16:46:15:830
-0.101151;-1.383255;10.452484;-0.219617;-0.49868;9.7915;0.190666;-0.894019;0.76366;-24.9436;-32.7307;-29.7984;2147.4836;7.9361;19.3634;-39.4684;339.9143;1.2565;1.9658;5.0;1005.52;46.05525;50.747936;-1.8690464;85.0;NaN;;0.0;3.216;;13 / 17;6858;2018-03-13 16:46:15:871
-0.194519;-0.231644;9.499588;0.048723;-0.632954;9.78608;-0.467813;0.475728;-0.204795;-6.4503;-20.4018;-19.4218;2147.4836;7.3349;20.4132;-38.5681;338.9748;3.5594;0.3805;5.0;1005.6033;46.05525;50.747936;-1.8690464;85.0;NaN;;0.0;3.216;;13 / 17;6897;2018-03-13 16:46:15:910
-0.27832;-1.112717;10.086166;0.244211;-0.746093;9.775178;-0.188068;-0.071697;-0.67576;-33.3663;-31.5102;-15.4544;2147.4836;4.9347;21.3135;-38.8687;342.7418;3.971;-0.9873;5.0;1005.6033;46.05525;50.747936;-1.8690464;85.0;NaN;;0.0;3.216;;13 / 17;6937;2018-03-13 16:46:15:950
0.21489;-1.560425;10.246582;0.476785;-0.977639;9.746142;-0.357969;-0.313708;0.329956;-30.4978;-36.3318;-13.0746;2147.4836;4.1855;21.6141;-38.8687;341.8746;5.7214;-2.8007;5.0;1005.5999;38.12636;50.747936;-1.8690464;85.0;NaN;;0.0;3.216;;13 / 17;6976;2018-03-13 16:46:15:989
0.564438;-1.033707;9.679153;0.739855;-1.201244;9.704638;-0.142292;-0.047306;-0.089356;-31.6571;-30.1062;-16.6145;2147.4836;3.5858;22.3633;-38.8687;339.1777;6.582;-3.8761;5.0;1005.48;38.12636;50.747936;-1.8690464;85.0;NaN;;0.0;3.216;;13 / 17;7017;2018-03-13 16:46:16:030
0.427963;-0.449524;9.944916;0.885585;-1.373041;9.669585;-0.326934;0.929825;0.224484;-34.5868;-11.9792;-12.0369;2147.4836;2.536;23.4146;-38.5681;339.3598;8.0485;-5.2328;5.0;1005.48;38.12636;50.747936;-1.8690464;85.0;NaN;;0.0;3.216;;13 / 17;7057;2018-03-13 16:46:16:070
2.891602;-2.877243;9.758163;0.984411;-1.759512;9.597158;0.445738;-0.651624;-0.040812;-98.6738;3.6466;-38.465;2147.4836;1.6357;23.8632;-38.269;341.9364;9.2784;-5.6739;5.0;1005.3433;38.12636;50.747936;-1.8690464;85.0;NaN;;0.0;3.216;;13 / 17;7098;2018-03-13 16:46:16:111
0.784699;-2.920334;9.413406;1.150048;-2.423514;9.432622;1.058972;-0.686174;0.392259;-154.7657;-33.6461;-119.5198;2147.4836;1.6357;27.4643;-37.6678;342.3642;11.7933;-5.9989;5.0;1005.2166;38.12636;50.747936;-1.8690464;85.0;NaN;;0.0;3.216;;13 / 17;7137;2018-03-13 16:46:16:150
-1.91835;-4.131805;9.583389;1.457519;-3.935602;8.863241;-3.022891;-0.448094;-0.678229;-257.1823;32.638;19.7015;2147.4836;-1.6647;31.0638;-32.5684;350.3698;19.1571;-8.9117;5.0;1005.2166;38.12636;50.747936;-1.8690464;85.0;NaN;;0.0;3.216;;13 / 17;7177;2018-03-13 16:46:16:190
1.799851;-6.4039;8.312073;0.889367;-5.310918;8.195948;0.856813;-0.822769;0.297033;-156.9016;2.2425;137.6214;2147.4836;-3.6148;36.3144;-26.268;2.2259;30.2167;-7.2328;5.0;1005.1634;38.12636;50.747936;-1.8690464;85.0;NaN;;0.0;3.216;;13 / 17;7217;2018-03-13 16:46:16:230
-0.654205;-5.822098;7.270584;0.755891;-6.348887;7.435769;-3.376698;5.073592;3.110749;-149.3943;-37.6747;55.5289;2147.4836;-0.3143;40.8142;-17.7185;2.2259;30.2167;-7.2328;5.0;1005.1367;38.12636;50.747936;-1.8690464;85.0;NaN;;0.0;3.216;;13 / 17;7258;2018-03-13 16:46:16:271
2.74556;-6.212356;8.462906;0.757727;-6.795414;7.029835;1.845147;0.868703;1.435011;-123.2712;-14.2374;-0.6845;2147.4836;-0.4639;40.5136;-18.6188;354.7083;40.3463;-5.8045;5.0;1005.1367;45.63242;50.747936;-1.8690464;85.0;NaN;;0.0;3.216;;13 / 17;7296;2018-03-13 16:46:16:309
-0.898422;-6.250671;5.644928;0.947739;-7.506334;6.23916;-1.978047;1.475282;-0.293183;-124.0651;-71.6713;20.4342;2147.4836;-0.4639;42.1646;-16.6687;353.5861;43.8632;-6.152;5.0;1005.11;45.63242;50.747936;-1.8690464;85.0;NaN;;0.0;3.216;;13 / 17;7338;2018-03-13 16:46:16:351
3.210037;-6.882736;5.075104;1.002941;-7.988505;5.598955;0.387991;1.521591;-1.237468;-155.2536;-113.6631;97.6431;2147.4836;-0.4639;43.9636;-11.7187;352.1409;49.9455;-8.6373;5.0;1005.0633;45.63242;50.747936;-1.8690464;85.0;NaN;;0.0;3.216;;13 / 17;7376;2018-03-13 16:46:16:389
-0.568024;-10.052658;4.811753;0.584594;-8.754313;4.380715;-0.340249;-1.542854;-0.082421;-185.2216;25.741;12.7433;2147.4836;2.9861;43.9636;-6.6177;344.4245;63.2134;-7.601;5.0;1005.0633;45.63242;50.747936;-1.8690464;85.0;NaN;;0.0;3.216;;15 / 19;7416;2018-03-13 16:46:16:429
0.011383;-8.630508;2.893997;0.828075;-9.157903;3.408445;-0.942415;0.776217;-0.308738;-93.7299;-29.252;-71.3024;2147.4836;1.6357;44.1132;-1.0681;351.8775;69.0425;-13.6553;5.0;1005.05;45.63242;50.747936;-1.8690464;85.0;NaN;;0.0;3.216;;15 / 19;7457;2018-03-13 16:46:16:470
1.452683;-9.990417;2.501343;1.084885;-9.320551;2.849693;1.34725;-0.768529;-0.818878;-143.9013;15.853;2.8553;2147.4836;-1.9653;44.1132;3.8818;11.2459;71.8845;-20.8419;5.0;1005.06;45.63242;50.747936;-1.8690464;85.0;NaN;;0.0;3.216;;15 / 19;7497;2018-03-13 16:46:16:510
0.420792;-9.260178;2.048843;0.913867;-9.575588;1.908759;-0.48096;0.451289;0.166866;-122.0508;-20.3406;5.1144;2147.4836;-1.5152;44.1132;8.0811;18.5207;77.5377;-25.584;5.0;1005.06;45.63242;50.747936;-1.8690464;85.0;NaN;;0.0;3.216;;15 / 19;7536;2018-03-13 16:46:16:549
1.270721;-11.197083;1.390427;0.931143;-9.714334;0.96699;0.060263;-1.517623;0.468046;-129.8632;15.9754;3.3441;2147.4836;-1.5152;43.2144;9.581;35.7238;82.1321;-43.9181;5.0;1005.07;45.63242;50.747936;-1.8690464;85.0;NaN;;0.0;3.216;;15 / 19;7577;2018-03-13 16:46:16:590
0.499802;-9.856339;0.825394;0.962121;-9.755086;0.288127;-0.764453;-0.749637;1.063792;-80.7296;7.7355;-28.028;2147.4836;-1.3458;42.4973;14.2029;35.7238;82.1321;-43.9181;5.0;1005.0967;43.50534;50.747936;-1.8690464;85.0;NaN;;0.0;3.216;;15 / 19;7616;2018-03-13 16:46:16:629
1.75914;-10.174759;0.772736;1.266492;-9.723988;-0.102256;0.392377;-0.288363;0.710109;-54.6065;16.6469;-12.9522;2147.4836;-2.5452;41.2964;16.153;65.9265;84.1218;-73.3286;5.0;1005.0967;43.50534;50.747936;-1.8690464;85.0;NaN;;0.0;3.216;;15 / 19;7657;2018-03-13 16:46:16:670
1.206085;-9.849152;1.148621;1.2282;-9.721851;-0.384083;-0.042411;0.011992;1.545184;-31.7183;16.952;10.3627;2147.4836;-3.595;41.1469;16.6031;86.1015;82.5555;-94.616;5.0;1005.1501;43.50534;50.747936;-1.8690464;85.0;NaN;;0.0;3.216;;15 / 19;7696;2018-03-13 16:46:16:709
1.591553;-9.080612;-0.505783;1.038416;-9.736096;-0.548191;0.877134;0.69587;-0.08387;-32.4509;16.8296;28.2466;2147.4836;-4.0451;41.1469;16.6031;102.8709;82.4598;-107.3655;5.0;1005.2034;43.50534;50.747936;-1.8690464;85.0;NaN;;0.0;3.216;;15 / 19;7736;2018-03-13 16:46:16:749
0.210098;-10.689514;-0.223267;0.921752;-9.737404;-0.709719;-0.735627;-0.71571;0.496616;-28.6059;15.4867;31.7865;2147.4836;-4.0451;40.2466;19.4534;116.304;83.123;-117.83;5.0;1005.2034;43.50534;50.747936;-1.8690464;85.0;NaN;;0.0;3.216;;15 / 19;7777;2018-03-13 16:46:16:790
0.724854;-9.743805;-0.857727;0.719292;-9.746854;-0.807368;-0.023048;0.155737;-0.039611;-1.3228;0.5945;6.5176;2147.4836;-3.8956;39.7964;20.5032;134.1417;83.3514;-132.4358;5.0;1005.2233;43.50534;50.747936;-1.8690464;85.0;NaN;;0.0;3.216;;15 / 19;7816;2018-03-13 16:46:16:829
0.729645;-9.988022;-0.536896;0.767359;-9.745535;-0.778521;-0.084914;-0.066879;0.256656;1.6069;-3.678;-1.8438;2147.4836;-2.9953;39.7964;20.2042;135.7972;83.6314;-136.2689;5.0;1005.22;43.50534;50.747936;-1.8690464;85.0;NaN;;0.0;3.216;;15 / 19;7857;2018-03-13 16:46:16:870
0.528534;-10.320816;0.116714;0.721707;-9.75024;-0.763109;-0.08056;-0.326947;0.619371;5.5131;-0.8708;16.7107;2147.4836;-2.9953;39.7964;20.2042;135.1889;83.6688;-135.7028;5.0;1005.22;43.50534;50.747936;-1.8690464;85.0;NaN;;0.0;3.216;;15 / 19;7896;2018-03-13 16:46:16:909
0.609924;-9.841965;0.052078;0.627642;-9.767923;-0.603424;0.066648;0.111416;0.651079;32.979;-0.2597;-1.4163;2147.4836;-2.5452;39.7964;20.0531;138.0575;84.5371;-136.9011;5.0;1005.21;43.50534;50.747936;-1.8690464;85.0;NaN;;0.0;3.216;;15 / 19;7937;2018-03-13 16:46:16:950
-0.407608;-11.561005;1.984192;0.740494;-9.777286;-0.163524;-1.289798;-1.411758;1.850923;111.4696;-7.1567;-21.8636;2147.4836;-2.3956;39.946;18.7042;117.2054;85.3844;-119.9122;5.0;1005.21;44.41741;50.747936;-1.8690464;85.0;NaN;;0.0;3.216;;15 / 19;7977;2018-03-13 16:46:16:990
1.960266;-9.494812;0.447113;0.792893;-9.722422;1.008079;1.042885;0.258489;-0.58487;170.3688;-22.9652;-0.3794;2147.4836;-2.8458;43.5471;15.1032;51.5606;84.3007;-53.0808;5.0;1005.21;44.41741;50.747936;-1.8690464;85.0;NaN;;0.0;3.216;;15 / 19;8017;2018-03-13 16:46:17:030
0.870895;-8.781342;3.262695;1.175177;-9.510166;2.084729;-0.469819;1.000271;0.885726;167.683;12.4967;-77.9546;2147.4836;-2.3956;43.396;11.8042;51.5606;84.3007;-53.0808;5.0;1005.2067;44.41741;50.747936;-1.8690464;85.0;NaN;;0.0;3.216;;15 / 19;8056;2018-03-13 16:46:17:069
1.335373;-9.995193;4.22995;1.414663;-9.228167;3.001676;0.015385;-1.59134;-0.038428;181.8435;30.3186;-13.0746;2147.4836;-2.3956;44.2963;3.1036;10.5136;70.222;-25.2341;5.0;1005.23;44.41741;50.747936;-1.8690464;85.0;NaN;;0.0;3.216;;15 / 19;8097;2018-03-13 16:46:17:110
0.98822;-7.790146;4.500504;1.123174;-8.560682;4.650117;-0.19104;1.074785;0.086852;194.661;45.3944;36.1202;2147.4836;-2.2446;44.7464;-3.4958;10.5136;70.222;-25.2341;5.0;1005.23;44.41741;50.747936;-1.8690464;85.0;NaN;;0.0;3.216;;15 / 19;8137;2018-03-13 16:46:17:150
0.669785;-8.211517;7.17482;0.902778;-7.986625;5.618647;-0.244676;0.018166;1.455388;245.1367;32.089;21.9598;2147.4836;-2.2446;44.7464;-5.2963;3.1696;60.8029;-13.579;5.0;1005.24;44.41741;50.747936;-1.8690464;85.0;NaN;;0.0;3.216;;15 / 19;8177;2018-03-13 16:46:17:190
0.894836;-7.785354;7.11258;0.745737;-6.822488;7.004851;0.844807;-2.502044;-0.044181;264.729;11.0315;-0.6845;2147.4836;-0.145;42.7963;-13.8458;359.2514;52.0291;-8.0397;5.0;1005.24;44.41741;50.747936;-1.8690464;85.0;NaN;;0.0;3.216;;15 / 19;8216;2018-03-13 16:46:17:229
1.004974;-5.89154;6.87555;0.764277;-5.732763;7.919703;0.08492;-0.18575;-1.208528;180.4394;15.9754;-27.2954;2147.4836;2.4048;38.8962;-22.0963;349.24;40.3069;-5.655;5.0;1005.24;44.41741;50.747936;-1.8690464;85.0;NaN;;0.0;3.216;;15 / 19;8257;2018-03-13 16:46:17:270
0.554855;-6.197998;9.621704;0.682948;-4.779219;8.535984;-0.114864;-1.327002;0.794308;115.5594;51.2537;-26.3188;2147.4836;1.5045;35.4462;-25.0961;348.6206;30.9302;-5.099;5.0;1005.2534;39.81152;50.747936;-1.8690464;85.0;NaN;;0.0;3.216;;15 / 19;8297;2018-03-13 16:46:17:310
-0.273529;-4.443039;9.418198;0.347991;-3.807321;9.030703;-0.637683;-0.296788;-0.092119;164.6318;33.8585;4.9309;2147.4836;1.5045;34.5459;-26.1459;350.8715;25.2199;-2.9091;5.0;1005.31;39.81152;50.747936;-1.8690464;85.0;NaN;;0.0;3.216;;15 / 19;8337;2018-03-13 16:46:17:350
0.286713;-2.951462;8.654434;0.202653;-2.776732;9.403142;0.137912;-0.128819;-0.992937;152.6081;25.741;-18.0789;2147.4836;2.4048;30.7968;-31.6971;352.5932;16.4482;-1.2346;5.0;1005.31;39.81152;50.747936;-1.8690464;85.0;NaN;;0.0;3.216;;15 / 19;8377;2018-03-13 16:46:17:390
-0.71167;-2.340942;9.473251;-0.054541;-1.792392;9.641304;-0.695581;-0.536498;-0.436995;155.049;41.976;8.7155;2147.4836;3.6041;27.0462;-34.8465;349.3119;10.5313;0.3241;5.0;1005.3967;39.81152;50.747936;-1.8690464;85.0;NaN;;0.0;3.216;;15 / 19;8416;2018-03-13 16:46:17:429
-1.049255;-0.176575;7.179611;-0.544943;-0.78118;9.760285;-0.941715;1.061503;-2.358709;115.8645;74.9961;33.9835;2147.4836;4.805;21.6461;-35.4462;349.3119;10.5313;0.3241;5.0;1005.4966;39.81152;50.747936;-1.8690464;85.0;NaN;;0.0;3.216;;15 / 19;8456;2018-03-13 16:46:17:469
1.845337;-0.660202;10.481216;-0.870339;-0.498877;9.755205;2.659616;-0.075296;0.025651;35.7251;7.9794;1.7573;2147.4836;7.6553;22.2458;-36.7966;346.0335;4.5689;3.1957;5.0;1005.4966;39.81152;50.747936;-1.8690464;85.0;NaN;;0.0;3.216;;15 / 19;8496;2018-03-13 16:46:17:509
-1.635834;-1.87886;11.012726;-0.929172;-0.186679;9.760746;-0.833135;-1.360754;0.506622;58.247;11.0315;38.7448;2147.4836;8.4045;20.7459;-37.2467;347.7277;2.1682;5.4147;5.0;1005.5733;39.81152;50.747936;-1.8690464;85.0;NaN;;0.0;3.216;;15 / 19;8537;2018-03-13 16:46:17:550
-1.252762;0.45549;9.068634;-0.981881;0.182857;9.755658;-0.045941;0.452922;-1.093126;63.0082;8.4681;29.7722;2147.4836;8.7051;18.6462;-37.5458;345.3644;-1.0684;5.7473;5.0;1005.64;39.81152;50.747936;-1.8690464;85.0;NaN;;0.0;3.216;;15 / 19;8577;2018-03-13 16:46:17:590
-1.398804;-0.061661;11.278488;-0.9817;0.591926;9.739419;-0.34539;-0.685942;1.272654;39.9976;-21.9274;4.5033;2147.4836;10.8093;16.6687;-37.5412;339.732;-3.4605;5.7558;5.0;1005.64;41.74115;50.747936;-1.8690464;85.0;NaN;;0.0;3.216;;15 / 19;8617;2018-03-13 16:46:17:630
-1.743576;1.176148;9.059067;-0.789485;0.904326;9.732898;-0.979439;0.112134;-0.643161;36.0914;-29.3735;7.433;2147.4836;10.8093;16.5176;-38.1409;339.732;-3.4605;5.7558;5.0;1005.6501;41.74115;50.747936;-1.8690464;85.0;NaN;;0.0;3.216;;15 / 19;8657;2018-03-13 16:46:17:670
-0.630264;1.097138;10.227432;-0.616387;1.057462;9.729965;0.041439;0.051545;0.282463;3.8039;-17.2274;1.3298;2147.4836;10.5103;15.7684;-39.0411;339.2296;-5.2911;4.6374;5.0;1005.6234;41.74115;50.747936;-1.8690464;85.0;NaN;;0.0;3.216;;15 / 19;8697;2018-03-13 16:46:17:710
-0.414795;1.022919;10.708664;-0.471709;1.065335;9.737194;0.069493;-0.215593;0.84337;24.0064;-49.0882;-0.6845;2147.4836;8.2596;14.418;-39.3417;339.6473;-6.1677;3.3062;5.0;1005.6234;41.74115;50.747936;-1.8690464;85.0;NaN;;0.0;3.216;;15 / 19;8736;2018-03-13 16:46:17:749
0.222061;1.492188;9.506775;-0.113847;1.342337;9.713678;-0.151773;0.001598;-0.201295;40.669;-13.0772;8.288;2147.4836;8.2596;14.1174;-40.5411;340.4898;-6.5631;2.0579;5.0;1005.5767;41.74115;50.747936;-1.8690464;85.0;NaN;;0.0;3.216;;15 / 19;8778;2018-03-13 16:46:17:791
0.298676;1.42514;9.671982;0.15345;1.588865;9.675865;0.17982;-0.221051;-0.053287;19.3676;-46.6464;-3.1255;2147.4836;8.11;14.1174;-40.2405;338.2576;-8.9181;0.0159;5.0;1005.55;41.74115;50.747936;-1.8690464;85.0;NaN;;0.0;3.216;;15 / 19;8817;2018-03-13 16:46:17:830
0.37529;1.621475;9.600143;0.448832;1.6991;9.647901;-0.205338;-0.177098;-0.195091;14.3633;-25.7724;-1.2948;2147.4836;6.16;11.4182;-40.5411;337.7562;-9.5824;-1.7005;5.0;1005.55;41.74115;50.747936;-1.8690464;85.0;NaN;;0.0;3.216;;15 / 19;8856;2018-03-13 16:46:17:869
0.959488;1.87764;10.308838;0.495009;1.781059;9.630846;0.773834;-0.014075;0.060057;11.7387;-10.819;-13.0746;2147.4836;5.4092;11.7188;-41.1407;339.7723;-10.1629;-2.8029;5.0;1005.5466;41.74115;50.747936;-1.8690464;85.0;NaN;;0.0;3.216;;15 / 19;8897;2018-03-13 16:46:17:910
0.025742;1.738785;9.669586;0.527962;1.821998;9.621432;-0.466864;-0.165193;0.101826;8.3816;-4.3495;-5.4449;2147.4836;4.9606;11.7188;-41.1407;339.4853;-10.7073;-3.1409;5.0;1005.54;50.41896;50.747936;-1.8690464;85.0;NaN;;0.0;3.216;;15 / 19;8937;2018-03-13 16:46:17:950
0.35614;1.774704;9.339188;0.581114;1.860835;9.61093;-0.293048;-0.109105;-0.461041;0.1416;-23.5754;-2.8204;2147.4836;4.9606;11.7188;-41.1407;339.0417;-10.9383;-3.4601;5.0;1005.54;50.41896;50.747936;-1.8690464;85.0;NaN;;0.0;3.216;;15 / 19;8976;2018-03-13 16:46:17:989
0.365723;1.465851;10.69191;0.706687;1.882785;9.598234;-0.19949;-0.414726;0.823895;14.8511;-8.7435;-3.1867;2147.4836;4.5105;11.7188;-41.2918;337.7595;-11.069;-4.2109;5.0;1005.5433;50.41896;50.747936;-1.8690464;85.0;NaN;;0.0;3.216;;15 / 19;9017;2018-03-13 16:46:18:030
0.607529;1.954254;10.416565;0.741038;2.019932;9.567713;-0.248147;-0.348606;0.684814;33.1005;3.0966;4.1982;2147.4836;3.7598;11.4182;-41.5909;339.3357;-11.5999;-4.4083;5.0;1005.5466;50.41896;50.747936;-1.8690464;85.0;NaN;;0.0;3.216;;15 / 19;9056;2018-03-13 16:46:18:069
0.595566;2.090729;10.344742;0.650099;2.295362;9.512049;0.06416;-0.240298;0.804897;44.7588;24.2766;9.7524;2147.4836;3.7598;9.9182;-42.1906;340.6016;-13.5363;-3.9098;5.0;1005.5466;50.41896;50.747936;-1.8690464;85.0;NaN;;0.0;3.216;;15 / 19;9097;2018-03-13 16:46:18:110
0.700913;2.722794;9.877884;0.535134;2.608017;9.43834;0.307911;-0.001723;0.345028;52.2049;4.9282;7.7993;2147.4836;3.9093;7.8186;-42.1906;340.6016;-13.5363;-3.9098;5.0;1005.5234;50.41896;50.747936;-1.8690464;85.0;NaN;;0.0;3.216;;15 / 19;9137;2018-03-13 16:46:18:150
0.803864;3.060379;9.648041;0.542807;2.882629;9.357681;0.17548;0.086738;0.090183;59.0408;3.8293;-0.1958;2147.4836;4.5105;7.0679;-42.3416;339.075;-16.2197;-3.2666;5.0;1005.51;50.41896;50.747936;-1.8690464;85.0;NaN;;0.0;3.216;;15 / 19;9177;2018-03-13 16:46:18:190
0.487824;3.077149;10.04068;0.297793;3.300116;9.229895;0.173581;-0.253558;0.620482;36.0914;62.85;13.5983;2147.4836;5.4092;5.1178;-42.9413;341.3475;-18.234;-3.1878;5.0;1005.51;50.41896;50.747936;-1.8690464;85.0;NaN;;0.0;3.216;;15 / 19;9218;2018-03-13 16:46:18:231
-0.055664;3.285431;9.865906;-0.086765;3.632545;9.108649;0.071133;-0.426219;0.660683;67.0972;42.0372;18.3587;2147.4836;6.4606;4.068;-42.9413;340.2386;-20.2086;-0.8973;5.0;1005.49;57.56119;50.747936;-1.8690464;85.0;NaN;;0.0;3.216;;15 / 19;9258;2018-03-13 16:46:18:271
-1.20488;3.496124;9.583389;-0.104577;4.049241;8.931019;-0.546331;-0.520952;0.654444;110.7378;-28.0919;3.1001;2147.4836;9.3094;1.9684;-42.041;336.3698;-22.9113;0.8384;5.0;1005.5;57.56119;50.747936;-1.8690464;85.0;NaN;;0.0;3.216;;15 / 19;9297;2018-03-13 16:46:18:310
-1.291061;4.31015;8.079834;0.183201;4.777103;8.562484;-1.469554;-0.848731;-0.042415;116.1696;-43.4728;41.2469;2147.4836;8.5602;-3.1326;-42.1906;330.8461;-29.152;-1.2257;5.0;1005.5;57.56119;50.747936;-1.8690464;85.0;NaN;;0.0;3.216;;15 / 19;9337;2018-03-13 16:46:18:350
-0.414795;5.45459;7.198761;0.78549;5.278671;8.227335;-1.363415;0.118047;-1.272323;53.0591;-137.7115;80.5538;2147.4836;7.2098;-5.2322;-42.1906;330.8461;-29.152;-1.2257;5.0;1005.4733;57.56119;50.747936;-1.8690464;85.0;NaN;;0.0;3.216;;15 / 19;9377;2018-03-13 16:46:18:390
1.411987;4.544785;7.929001;2.279383;5.581355;7.734551;-1.287958;-0.930765;0.042934;82.8444;-220.5358;87.9387;2002.0;-0.1404;-6.282;-42.9413;333.5589;-32.5663;-5.4537;5.0;1005.41;57.56119;50.747936;-1.8690464;85.0;NaN;;0.0;3.216;;15 / 19;9416;2018-03-13 16:46:18:429
3.025681;4.958985;7.148484;3.634386;5.859249;6.97358;-0.729674;-1.017203;0.028821;100.056;-267.9602;54.186;2147.4836;-7.0404;-10.6323;-42.6407;326.5424;-35.5692;-21.0079;5.0;1005.3133;57.56119;50.747936;-1.8690464;85.0;NaN;;0.0;3.216;;15 / 19;9457;2018-03-13 16:46:18:470
4.124619;4.829697;6.188416;5.168818;6.343474;5.405003;-1.072311;-1.658408;0.297904;166.2798;-269.9133;43.6879;2147.4836;-15.8905;-11.232;-42.3416;325.7807;-37.6413;-32.6059;5.0;1005.3133;57.56119;50.747936;-1.8690464;85.0;NaN;;0.0;3.216;;15 / 19;9497;2018-03-13 16:46:18:510
4.232361;5.392334;2.922714;6.405006;6.671169;3.262178;-1.918014;-1.237138;-0.636688;159.6879;-277.0543;69.6893;2147.4836;-20.3903;-14.8315;-36.6409;305.3004;-42.5787;-56.5379;5.0;1005.2366;57.56119;50.747936;-1.8690464;85.0;NaN;;0.0;3.216;;15 / 19;9536;2018-03-13 16:46:18:549
5.858017;5.330094;-0.103546;6.968439;6.576177;2.089293;-1.328762;-1.450382;-1.983241;45.1855;-299.0884;93.1266;2147.4836;-26.6907;-18.5822;-29.4418;293.8035;-42.1121;-73.3101;5.0;1005.16;55.37255;50.747936;-1.8690464;85.0;NaN;;0.0;3.216;;15 / 19;9576;2018-03-13 16:46:18:589
10.25856;5.720337;-3.227981;7.745918;6.01329;0.107192;1.956874;-0.504835;-2.978379;-8.0371;-193.8025;66.0271;2147.4836;-33.2901;-16.9327;-23.8907;293.0992;-39.2788;-85.0138;5.0;1005.16;55.37255;50.747936;-1.8690464;85.0;NaN;;0.0;3.216;;15 / 19;9617;2018-03-13 16:46:18:630
8.266587;7.616547;-3.072357;7.803702;5.929851;-0.330871;1.233265;1.478867;-2.713562;-131.9378;-115.1895;1.2686;2147.4836;-37.1902;-14.9826;-19.9905;296.0811;-37.2771;-91.2913;5.0;1005.0999;55.37255;50.747936;-1.8690464;85.0;NaN;;0.0;3.216;;15 / 19;9656;2018-03-13 16:46:18:669
6.08786;8.507187;0.274735;7.981506;5.695614;0.161043;-2.576959;1.73561;-0.277387;-157.0843;41.6709;98.8032;2147.4836;-37.7899;-11.9827;-19.9905;301.9797;-36.8378;-91.1061;5.0;1005.0999;55.37255;50.747936;-1.8690464;85.0;NaN;;0.0;3.216;;15 / 19;9697;2018-03-13 16:46:18:710
7.49086;3.115448;0.923569;8.497029;4.621448;1.616507;-1.135202;-1.576683;-0.75598;-202.678;197.3722;181.6275;2147.4836;-37.1902;-8.5327;-20.7413;306.4567;-33.2024;-85.8706;5.0;1005.06;55.37255;50.747936;-1.8690464;85.0;NaN;;0.0;3.216;;15 / 19;9737;2018-03-13 16:46:18:750
8.187577;2.500137;2.66893;8.597169;3.474623;3.191563;-0.159533;-0.814444;-0.720346;-202.0678;209.7622;121.3863;2147.4836;-33.4396;0.7675;-28.3905;313.8344;-23.7916;-73.6398;5.0;1005.0633;55.37255;50.747936;-1.8690464;85.0;NaN;;0.0;3.216;;15 / 19;9776;2018-03-13 16:46:18:789
7.476502;0.678146;4.850052;8.176662;2.072861;5.001585;-0.801973;-1.347369;-0.355575;-207.4996;219.6493;113.6954;2147.4836;-28.0395;11.4182;-34.0912;322.4961;-15.1402;-62.1637;5.0;1005.1066;55.37255;50.747936;-1.8690464;85.0;NaN;;0.0;3.216;;15 / 19;9817;2018-03-13 16:46:18:830
7.49086;0.134674;7.474106;7.095091;0.289505;6.763598;0.218438;-0.25764;0.684195;-189.9217;314.8645;158.8617;2147.4836;-20.0897;18.9178;-34.3918;326.3256;-8.9372;-54.78;5.0;1005.1066;55.37255;50.747936;-1.8690464;85.0;NaN;;0.0;3.216;;15 / 19;9856;2018-03-13 16:46:18:869
4.897949;-0.643448;6.52121;4.922812;-1.445818;8.357388;0.049182;0.894376;-1.863929;-171.6111;355.0256;115.527;2147.4836;-9.8907;23.2681;-35.4416;329.1434;1.9207;-41.2741;5.0;1005.1767;55.37255;50.747936;-1.8690464;85.0;NaN;;0.0;3.216;;15 / 19;9897;2018-03-13 16:46:18:910
3.164536;-2.482193;7.703949;3.459054;-2.353267;8.869469;-0.271043;0.153382;-1.54572;-157.6342;282.0884;50.4022;2147.4836;-2.6901;28.2181;-34.9915;328.6823;11.3052;-25.6462;5.0;1005.24;49.6353;50.747936;-1.8690464;85.0;NaN;;0.0;3.216;;15 / 19;9937;2018-03-13 16:46:18:950
0.741608;-4.967376;10.600922;1.4189;-3.435935;9.074771;-0.175883;-1.233668;1.440992;-120.7691;274.7034;20.373;2147.4836;0.4593;29.8676;-32.1411;338.7575;18.489;-13.0337;5.0;1005.24;49.6353;50.747936;-1.8690464;85.0;NaN;;0.0;3.216;;15 / 19;9976;2018-03-13 16:46:18:989
-0.366898;-5.506073;11.07019;-0.225789;-3.949956;8.973142;0.433203;-1.440502;2.316764;-26.4692;237.4108;-7.1541;2147.4836;6.6101;33.7677;-28.241;338.492;23.0058;-2.1898;5.0;1005.3033;49.6353;50.747936;-1.8690464;85.0;NaN;;0.0;3.216;;15 / 19;10017;2018-03-13 16:46:19:030
-1.482605;-5.944214;11.120468;-1.719443;-3.896436;8.833555;-0.316735;-2.212011;2.18966;28.1566;223.3728;-22.1687;2147.4836;10.2097;33.6182;-27.3407;342.4991;23.8159;7.8294;5.0;1005.41;49.6353;50.747936;-1.8690464;85.0;NaN;;0.0;3.216;;15 / 19;10056;2018-03-13 16:46:19:069
-4.020462;-6.181228;11.807602;-2.644189;-3.709474;8.68438;-0.968888;-2.705735;3.029835;75.5207;261.2144;42.3459;2147.4836;14.1098;33.4686;-26.1414;343.4601;22.226;16.9343;5.0;1005.41;49.6353;50.747936;-1.8690464;85.0;NaN;;0.0;3.216;;15 / 19;10096;2018-03-13 16:46:19:109
-4.322128;-4.067154;9.667191;-4.463558;-2.995714;8.201995;0.283851;-1.024433;1.353599;81.3188;182.7842;54.9799;2147.4836;19.6594;30.7678;-23.7411;338.371;19.1938;25.6117;5.0;1005.5534;49.6353;50.747936;-1.8690464;85.0;NaN;;0.0;3.216;;15 / 19;10137;2018-03-13 16:46:19:150
-5.05954;-3.339325;9.492416;-5.66249;-2.121441;7.720498;0.564396;-0.901073;1.423029;123.4942;163.8633;83.5438;2147.4836;23.5596;28.5187;-22.9919;340.2531;14.5343;33.7933;5.0;1005.69;49.6353;50.747936;-1.8690464;85.0;NaN;;0.0;3.216;;15 / 19;10176;2018-03-13 16:46:19:189
-5.459366;-2.106308;8.57782;-6.372812;-1.321751;7.335572;1.211231;-0.88152;1.129381;129.1087;159.0418;110.1555;2147.4836;28.5095;23.8678;-20.8908;337.927;10.2024;38.6206;5.0;1005.69;49.6353;50.747936;-1.8690464;85.0;NaN;;0.0;3.216;;15 / 19;10216;2018-03-13 16:46:19:229
-5.555145;0.366913;6.95456;-7.314054;-0.061167;6.532324;1.83691;0.40169;0.394873;103.4132;173.6289;114.5505;2147.4836;32.4097;19.9677;-19.6915;342.0622;0.3574;48.2313;5.0;1005.74;49.73145;50.747936;-1.8690464;85.0;NaN;;0.0;3.216;;15 / 19;10256;2018-03-13 16:46:19:269
-7.927795;1.092346;4.519654;-7.887241;0.612411;5.79541;0.027726;0.077068;-1.281558;41.768;88.1188;34.4722;2147.4836;34.6603;16.8182;-16.6916;337.2941;-2.7764;52.4134;5.0;1005.66;49.73145;50.747936;-1.8690464;85.0;NaN;;0.0;3.216;;15 / 19;10296;2018-03-13 16:46:19:309
-10.264542;1.420349;3.169327;-7.683753;1.077202;5.997495;-2.490394;0.148972;-3.088771;81.9903;-156.0221;44.299;1994.0;35.1105;14.8682;-16.5405;338.7367;-5.4687;53.3871;5.0;1005.66;49.73145;50.747936;-1.8690464;85.0;NaN;;0.0;3.216;;15 / 19;10337;2018-03-13 16:46:19:350
-8.176788;0.761948;7.701554;-6.602882;1.616821;7.068113;-1.074437;-0.770583;-0.935637;130.5128;-422.0738;46.7399;1962.0;34.2102;12.468;-21.9406;331.781;-9.4897;43.051;5.0;1005.5167;49.73145;50.747936;-1.8690464;85.0;NaN;;0.0;3.216;;15 / 20;10377;2018-03-13 16:46:19:390
-3.299805;2.215225;12.05899;-3.580121;2.861898;8.669641;-1.602966;-0.282518;2.069313;174.8249;-465.5308;58.8249;1931.0001;21.3104;6.7673;-35.7407;343.172;-16.9677;22.4381;5.0;1005.3567;49.73145;50.747936;-1.8690479;85.0;NaN;;0.0;3.216;;15 / 20;10417;2018-03-13 16:46:19:430
-1.640625;4.250305;5.881958;-1.183286;3.864352;8.935156;-0.54518;-0.182755;-1.881416;80.3423;-375.931;91.5398;1931.0001;12.7594;1.8173;-40.6906;337.9485;-23.207;7.5438;5.0;1005.3567;49.73145;50.747936;-1.8690479;85.0;NaN;;0.0;3.216;;15 / 20;10456;2018-03-13 16:46:19:469
2.793442;5.030808;7.98645;1.536155;4.097695;8.776077;0.854194;0.854555;-1.243131;-15.8495;-350.1131;5.9686;1896.0;3.9093;0.618;-42.3416;338.1357;-24.8691;-4.6259;5.0;1005.23;49.73145;50.747936;-1.8690479;85.0;NaN;;0.0;3.216;;15 / 20;10496;2018-03-13 16:46:19:509
2.542053;3.924683;8.412628;3.165408;4.232373;8.260606;-0.492908;-0.390548;0.174356;58.8581;-252.7017;-58.546;2147.4836;-5.9906;-0.1328;-43.3914;338.4284;-24.7227;-17.3323;5.0;1005.18;49.73145;50.747936;-1.8690479;85.0;NaN;;0.0;3.216;;15 / 20;10537;2018-03-13 16:46:19:550
1.249176;4.204819;5.750275;4.702235;4.764425;7.166563;-2.990775;-0.542406;-1.603272;64.3511;-309.2202;-23.8779;2147.4836;-13.6398;-1.0315;-42.3416;338.4215;-28.0612;-28.5301;5.0;1005.18;51.09407;50.747936;-1.8690479;85.0;NaN;;0.0;3.216;;15 / 20;10577;2018-03-13 16:46:19:590
5.067932;4.800965;4.138977;5.678729;5.008189;6.232212;-0.73599;-0.261034;-1.870418;30.5372;-231.8881;-1.5387;2147.4836;-17.8406;-3.8818;-40.0909;338.4215;-28.0612;-28.5301;5.0;1005.2134;51.09407;50.747936;-1.8690479;85.0;NaN;;0.0;3.216;;15 / 20;10617;2018-03-13 16:46:19:630
2.819779;4.413101;3.645767;6.607743;4.806478;5.422721;-3.510275;-0.553787;-1.946767;-34.7704;-131.1807;73.168;2147.4836;-26.2405;-3.7323;-36.0413;327.155;-29.3487;-50.6256;5.0;1005.25;51.09407;50.747936;-1.8690479;85.0;NaN;;0.0;3.216;;15 / 20;10656;2018-03-13 16:46:19:669
7.356797;3.527252;2.137421;7.536927;3.889099;4.923416;-2.413729;-0.11487;-3.421262;-64.9823;-116.3488;150.3778;2147.4836;-28.2028;0.5676;-33.8364;323.2127;-23.3644;-56.8459;5.0;1005.25;51.09407;50.747936;-1.8690479;85.0;NaN;;0.0;3.216;;15 / 20;10697;2018-03-13 16:46:19:710
9.961685;3.850464;3.485352;7.935686;3.120249;4.843484;2.610275;0.914008;-1.291573;-93.4247;17.2571;130.4192;2147.4836;-28.8025;5.0674;-31.5872;325.7402;-18.5527;-58.6025;5.0;1005.2333;51.09407;50.747936;-1.8690479;85.0;NaN;;0.0;3.216;;15 / 20;10736;2018-03-13 16:46:19:749
6.056732;1.429932;3.080734;7.964396;1.930316;5.386342;-1.722175;-0.088707;-2.657631;-153.4832;112.35;179.6132;2147.4836;-28.2028;8.9676;-31.5872;325.7402;-18.5527;-58.6025;5.0;1005.2067;51.09407;50.747936;-1.8690479;85.0;NaN;;0.0;3.216;;15 / 20;10777;2018-03-13 16:46:19:790
9.162018;-1.771118;8.089401;7.657575;0.441536;6.110399;-0.197234;-1.305814;0.136248;-139.6287;220.138;202.4411;2147.4836;-25.3525;17.9672;-32.7866;333.9395;-6.545;-53.5671;5.0;1005.2067;51.09407;50.747936;-1.8690479;85.0;NaN;;0.0;3.216;;15 / 20;10817;2018-03-13 16:46:19:830
7.373551;-2.386429;7.713516;6.004701;-1.572961;7.592084;1.478887;-0.787844;0.155492;-113.2618;349.8989;201.6473;2147.4836;-16.2033;22.0169;-35.1868;329.243;2.452;-47.5482;5.0;1005.2;51.09407;50.747936;-1.8690479;85.0;NaN;;0.0;3.216;;15 / 20;10856;2018-03-13 16:46:19:869
4.64177;-2.053635;7.907456;3.720031;-2.897788;8.598522;0.968287;0.436076;-0.552066;-111.2475;288.7415;123.8885;2147.4836;-4.0527;26.2177;-34.7366;328.0764;12.3119;-32.8601;5.0;1005.2;47.35639;50.747936;-1.8690479;85.0;NaN;;0.0;3.216;;15 / 20;10897;2018-03-13 16:46:19:910
4.000122;-4.656128;11.283279;1.899876;-3.506459;8.959107;1.611566;-1.069985;2.446686;-64.1894;357.6502;24.9506;2147.4836;1.1963;28.7674;-33.8364;322.7183;18.3682;-20.7077;5.0;1005.2;47.35639;50.747936;-1.8690479;85.0;NaN;;0.0;3.216;;15 / 20;10936;2018-03-13 16:46:19:949
2.257141;-5.094269;8.130112;-1.006752;-3.820441;8.975582;3.255218;-1.250357;-1.12938;-32.0846;325.3015;-0.257;2147.4836;8.847;30.4184;-28.8864;324.6617;20.9504;-11.9728;5.0;1005.2166;47.35639;50.747936;-1.8690479;85.0;NaN;;0.0;3.216;;15 / 20;10977;2018-03-13 16:46:19:990
-1.633438;-6.181228;13.119629;-2.067133;-3.912607;8.751506;1.518789;-1.741779;3.990312;33.6504;234.4812;-84.9129;2147.4836;16.6473;31.6177;-25.8865;332.0912;22.9282;6.3999;5.0;1005.27;47.35639;50.747936;-1.8690479;85.0;NaN;;0.0;3.216;;15 / 20;11017;2018-03-13 16:46:20:030
-5.552749;-6.174057;10.893021;-3.036416;-3.470773;8.654727;-2.161346;-2.727677;2.118206;147.1142;112.899;-64.2217;2147.4836;17.0975;32.2174;-24.9863;333.5972;23.1956;16.0149;5.0;1005.27;47.35639;50.747936;-1.8690479;85.0;NaN;;0.0;3.216;;15 / 20;11056;2018-03-13 16:46:20:069
-5.413879;-5.292984;11.285675;-3.271714;-2.421885;8.921925;-2.046324;-2.851563;2.243094;196.0039;-13.8711;-56.1042;2147.4836;17.247;30.1178;-26.6373;340.6495;18.8065;20.2096;5.0;1005.3867;47.35639;50.747936;-1.8690479;85.0;NaN;;0.0;3.216;;15 / 20;11097;2018-03-13 16:46:20:110
-4.633377;-2.963425;11.302429;-2.717279;-1.504846;9.301733;-2.176175;-2.262634;1.366732;238.1181;-207.2915;-56.3481;2147.4836;16.7969;25.7675;-31.7368;342.2631;11.7076;18.7338;5.0;1005.4966;47.35639;50.747936;-1.8690479;85.0;NaN;;0.0;3.216;;15 / 20;11136;2018-03-13 16:46:20:149
-4.415497;-1.00737;9.949707;-1.163209;0.105751;9.736844;-3.889857;-1.479374;0.539339;281.27;-258.0111;-40.9068;2147.4836;14.5462;20.517;-35.7864;335.4491;2.0213;9.3147;5.0;1005.4966;47.35639;50.747936;-1.8690479;85.0;NaN;;0.0;3.216;;15 / 20;11177;2018-03-13 16:46:20:190
-2.552811;2.483383;8.108567;0.564803;2.215275;9.536453;-2.995736;-0.027492;-1.237406;264.9125;-202.8966;6.2737;2147.4836;4.7974;11.0672;-42.3874;343.4516;-8.9753;-0.2379;5.0;1005.51;42.53888;50.747936;-1.8690479;85.0;NaN;;0.0;3.216;;15 / 20;11217;2018-03-13 16:46:20:230
0.13588;3.436279;6.774994;1.88299;3.65213;8.904307;-2.027041;-0.349771;-2.300593;165.1809;-222.245;24.8282;2147.4836;-3.6026;2.0676;-42.5369;343.5866;-16.8209;-6.4055;5.0;1005.4167;42.53888;50.747936;-1.8690479;85.0;NaN;;0.0;3.216;;15 / 20;11257;2018-03-13 16:46:20:270
3.691269;4.748291;6.633728;3.506366;4.559897;7.942489;0.149983;0.201269;-1.44601;128.7433;-244.7669;4.8697;2147.4836;-7.5027;-0.9323;-43.5867;338.2311;-25.945;-19.7621;5.0;1005.4167;42.53888;50.747936;-1.8690479;85.0;NaN;;0.0;3.216;;15 / 20;11296;2018-03-13 16:46:20:309
3.119049;5.811325;4.78302;4.323406;5.035368;7.21967;-1.078267;0.550679;-2.227547;83.028;-188.4922;-11.7929;2147.4836;-12.3032;-2.1317;-42.3874;338.2311;-25.945;-19.7621;5.0;1005.31;42.53888;50.747936;-1.8690479;85.0;NaN;;0.0;3.216;;15 / 20;11337;2018-03-13 16:46:20:350
2.822174;4.889557;4.280228;5.179898;5.412195;6.328285;-2.467774;-0.373676;-2.0229;56.599;-185.6238;6.3349;2147.4836;-19.8029;-5.2826;-37.7365;335.7221;-33.4968;-39.3014;5.0;1005.28;42.53888;50.747936;-1.8690479;85.0;NaN;;0.0;3.216;;15 / 20;11376;2018-03-13 16:46:20:389
3.470993;4.796173;2.020111;6.084838;5.36705;5.508167;-2.620119;-0.544519;-3.470603;-6.877;-127.0909;93.1266;2147.4836;-22.8027;-7.0816;-38.0371;335.7221;-33.4968;-39.3014;5.0;1005.28;42.53888;50.747936;-1.8690479;85.0;NaN;;0.0;3.216;;11 / 19;11416;2018-03-13 16:46:20:429
5.915482;3.97258;1.991379;6.872051;4.68121;5.19919;-1.071259;-0.591084;-2.722446;-73.8325;-79.6664;142.3818;2147.4836;-27.153;-4.0817;-36.087;324.0616;-28.5125;-52.8899;5.0;1005.2634;42.53888;50.747936;-1.8690479;85.0;NaN;;0.0;3.216;;11 / 19;11457;2018-03-13 16:46:20:470
6.921051;2.792236;2.434311;7.674725;3.4313;5.049275;-1.148113;-0.895518;-2.960821;-121.013;-78.6899;157.3361;2147.4836;-29.2526;0.8682;-32.7866;324.0616;-28.5125;-52.8899;5.0;1005.2634;42.53888;50.747936;-1.8690479;85.0;NaN;;0.0;3.216;;11 / 19;11497;2018-03-13 16:46:20:510
10.725433;2.825745;5.518036;7.978554;2.572988;5.088496;2.583573;0.406675;0.171895;-85.6123;-3.0066;115.2822;2147.4836;-29.1031;7.1671;-32.637;329.1981;-20.4809;-56.6587;5.0;1005.2366;39.99187;50.747936;-1.8690479;85.0;NaN;;0.0;3.216;;11 / 19;11536;2018-03-13 16:46:20:549
6.394318;0.749985;4.320938;7.863307;1.458422;5.675544;-1.430689;-0.469362;-1.533287;-145.1217;165.9388;163.0118;2147.4836;-28.3539;12.8677;-32.637;329.5614;-11.1873;-56.0574;5.0;1005.24;39.99187;50.747936;-1.8690479;85.0;NaN;;0.0;3.216;;11 / 19;11577;2018-03-13 16:46:20:590
7.363968;-1.474228;7.940964;6.87511;-0.342395;6.984699;0.004717;-1.018588;-0.129773;-156.8404;256.5152;191.8818;2147.4836;-23.4039;17.8177;-33.2367;336.3125;-5.2881;-51.627;5.0;1005.24;39.99187;50.747936;-1.8690479;85.0;NaN;;0.0;3.216;;11 / 19;11616;2018-03-13 16:46:20:629
5.702393;-2.747955;8.704712;4.783376;-1.840225;8.360817;1.267233;-0.854722;0.44786;-127.1775;440.0478;175.0968;2147.4836;-10.9528;23.3673;-35.4874;326.9168;7.7717;-36.185;5.0;1005.2634;39.99187;50.747936;-1.8690479;85.0;NaN;;0.0;3.216;;11 / 19;11656;2018-03-13 16:46:20:669
4.356858;-3.396774;8.891464;1.936471;-3.161075;9.078991;2.402394;-0.311873;-0.098986;-152.4463;355.7583;87.6336;2147.4836;0.7462;29.5181;-35.1868;329.9615;16.3412;-17.1086;5.0;1005.3167;39.99187;50.747936;-1.8690479;85.0;NaN;;0.0;3.216;;11 / 19;11696;2018-03-13 16:46:20:709
0.265167;-5.711975;10.785278;0.522324;-3.796039;9.027051;0.709848;-1.712077;1.328008;-96.1105;293.0752;-11.7929;2147.4836;6.897;31.6177;-30.8365;333.5961;22.7734;-3.3116;5.0;1005.3167;39.99187;50.747936;-1.8690479;85.0;NaN;;0.0;3.216;;11 / 19;11737;2018-03-13 16:46:20:750
-2.959823;-5.113418;11.211441;-1.203119;-4.209329;8.775218;-1.395672;-1.240997;1.964608;-23.5396;249.3734;-6.7878;2147.4836;13.8016;32.2128;-25.6989;328.738;25.4188;7.8068;5.0;1005.3766;39.99187;50.747936;-1.8690479;85.0;NaN;;0.0;3.216;;11 / 19;11776;2018-03-13 16:46:20:789
-3.520065;-4.857239;12.078156;-2.353237;-4.200064;8.543543;-0.339003;-1.002815;3.792458;96.6997;53.0241;-62.5125;2147.4836;15.3015;33.2642;-23.5992;336.0444;25.3589;15.3997;5.0;1005.3934;39.99187;50.747936;-1.8690479;85.0;NaN;;0.0;3.216;;11 / 19;11816;2018-03-13 16:46:20:829
-3.766678;-5.123001;11.434113;-2.078152;-3.312355;8.993329;-1.669358;-1.877402;2.353924;218.1595;-55.4353;-93.458;2147.4836;15.9012;32.663;-25.9994;335.4238;19.7408;13.0114;5.0;1005.3934;38.29318;50.747936;-1.8690479;85.0;NaN;;0.0;3.216;;11 / 19;11856;2018-03-13 16:46:20:869
-3.883987;-4.732742;11.067795;-1.827849;-1.505319;9.516479;-1.968709;-2.885368;1.244381;274.373;-7.523;-23.5728;2147.4836;13.3514;25.1633;-32.2998;338.8578;12.701;11.1816;5.0;1005.4333;38.29318;50.747936;-1.8690479;85.0;NaN;;0.0;3.216;;11 / 19;11897;2018-03-13 16:46:20:910
-1.784271;-0.753586;10.591354;-1.561492;-0.202684;9.679414;-0.452596;-1.286509;0.94;257.8931;-99.6862;-8.8633;2147.4836;13.0524;21.4142;-36.3495;338.8578;12.701;11.1816;5.0;1005.48;38.29318;50.747936;-1.8690479;85.0;NaN;;0.0;3.216;;11 / 19;11936;2018-03-13 16:46:20:949
-2.296631;1.264725;8.898651;-0.688898;1.685732;9.636085;-1.536024;-0.518139;-0.88062;249.8979;-115.2499;-35.3526;2147.4836;11.5524;15.2634;-40.3992;340.6493;-2.5303;7.5199;5.0;1005.48;38.29318;50.747936;-1.8690479;85.0;NaN;;0.0;3.216;;11 / 19;11976;2018-03-13 16:46:20:989
-1.010941;2.888001;7.991242;-0.030205;3.236235;9.257227;-1.281841;-0.46853;-1.620668;173.8483;-72.7694;28.2466;2147.4836;5.5527;5.3635;-42.0486;339.2838;-9.8981;4.0892;5.0;1005.4766;38.29318;50.747936;-1.8690479;85.0;NaN;;0.0;3.216;;11 / 19;12016;2018-03-13 16:46:21:029
-0.046082;4.449021;6.8564;0.661578;4.086496;8.890064;-0.476203;0.218122;-1.979449;104.5122;-179.2757;22.3261;2147.4836;4.5013;2.8137;-43.2495;341.9422;-19.269;0.1869;5.0;1005.42;38.29318;50.747936;-1.8690479;85.0;NaN;;0.0;3.216;;11 / 19;12057;2018-03-13 16:46:21:070
-1.930313;3.948639;6.767807;2.019426;4.603238;8.420362;-3.462756;-0.32307;-2.131686;82.8444;-223.0379;39.2938;2147.4836;-3.4485;-1.387;-43.2495;341.6909;-24.6268;-4.256;5.0;1005.42;38.29318;50.747936;-1.8690479;85.0;NaN;;0.0;3.216;;11 / 19;12097;2018-03-13 16:46:21:110
2.616272;3.680481;6.648102;3.074675;4.955916;7.883887;-1.364892;-1.552316;-1.00064;145.1611;-213.1509;62.182;2147.4836;-6.4484;-4.3869;-43.399;333.5076;-29.0943;-17.2528;5.0;1005.33;38.29318;50.747936;-1.8690479;85.0;NaN;;0.0;3.216;;11 / 19;12136;2018-03-13 16:46:21:149
3.607468;5.39473;4.170105;4.537829;5.683393;6.578568;-0.939159;-0.490731;-2.133084;161.3359;-265.3969;13.0484;2147.4836;-10.9482;-6.337;-43.2495;327.4696;-33.5719;-29.8925;5.0;1005.3133;42.7405;50.747936;-1.8690479;85.0;NaN;;0.0;3.216;;11 / 19;12177;2018-03-13 16:46:21:190
4.981735;5.796952;2.530075;5.748597;6.365814;4.753991;-1.274697;-0.634016;-2.140649;149.007;-266.7397;0.5368;2147.4836;-19.7983;-12.7869;-36.3495;322.5307;-38.9407;-45.0155;5.0;1005.3133;42.7405;50.747936;-1.8690479;85.0;NaN;;0.0;3.216;;11 / 19;12217;2018-03-13 16:46:21:230
6.516419;7.099396;0.712875;6.450614;6.639024;3.237797;-0.021101;0.002267;-2.143494;106.4041;-162.7355;42.651;2147.4836;-25.798;-14.5859;-31.9992;316.7321;-42.2703;-59.0709;5.0;1005.3;42.7405;50.747936;-1.8690479;85.0;NaN;;0.0;3.216;;11 / 19;12256;2018-03-13 16:46:21:269
7.682404;7.180802;0.23642;7.01696;6.217088;2.877579;0.587731;0.9666;-2.792648;-44.292;60.5314;138.2317;2147.4836;-28.3478;-15.036;-29.7501;307.4872;-41.2483;-67.942;5.0;1005.28;42.7405;50.747936;-1.8690479;85.0;NaN;;0.0;3.216;;11 / 19;12296;2018-03-13 16:46:21:309
8.71669;4.250305;4.409516;7.22156;5.413821;3.835361;1.475823;-0.79851;-0.473676;-137.1869;258.2848;176.3181;2147.4836;-28.4973;-12.6358;-30.3497;308.3739;-33.5082;-62.0273;5.0;1005.28;42.7405;50.747936;-1.8690479;85.0;NaN;;0.0;3.216;;11 / 19;12337;2018-03-13 16:46:21:350
7.229904;3.618225;5.728729;6.706902;4.10354;5.860787;0.579507;-0.422282;-0.377191;-142.7411;340.9875;147.5706;2147.4836;-21.2982;-3.4866;-38.2996;314.1336;-24.7364;-48.8516;5.0;1005.26;42.7405;50.747936;-1.8690479;85.0;NaN;;0.0;3.216;;11 / 19;12376;2018-03-13 16:46:21:389
5.94661;2.231995;7.378327;5.350136;2.832182;7.715256;0.531575;-0.557131;-0.45099;-107.0362;213.9124;44.1766;2147.4836;-11.5479;2.3636;-42.4988;314.1336;-24.7364;-48.8516;5.0;1005.3;42.7405;50.747936;-1.8690479;85.0;NaN;;0.0;3.216;;12 / 20;12416;2018-03-13 16:46:21:429
4.742325;1.513733;8.405441;4.031602;2.070882;8.696438;0.58067;-0.51002;-0.266845;-116.7405;288.0089;44.9704;2147.4836;-8.9981;5.6641;-42.7994;316.3397;-16.7863;-34.7393;5.0;1005.3;42.7405;50.747936;-1.8690479;85.0;NaN;;0.0;3.216;;12 / 20;12457;2018-03-13 16:46:21:470
2.652176;1.180939;8.149262;2.195884;1.30563;9.468041;0.610553;-0.029673;-1.565439;-159.6485;474.5323;66.6985;2147.4836;7.0526;10.7636;-42.4988;320.6114;-12.191;-24.8721;5.0;1005.4;39.94026;50.747936;-1.8690479;85.0;NaN;;0.0;3.216;;12 / 20;12496;2018-03-13 16:46:21:509
0.111938;0.364517;9.185959;-1.104563;0.03573;9.744181;1.884201;0.535696;-0.736576;-160.9914;298.2631;-45.3621;2147.4836;18.602;15.7135;-37.8494;320.2966;-2.6572;0.8807;5.0;1005.5067;39.94026;50.747936;-1.8690479;85.0;NaN;;0.0;3.216;;12 / 20;12536;2018-03-13 16:46:21:549
-2.840118;-1.558029;10.031113;-2.79418;-0.930215;9.354018;0.43799;-0.517597;0.715354;-99.5289;208.4193;-71.4239;2147.4836;22.052;18.7134;-31.0989;322.5549;3.6108;13.3537;5.0;1005.5067;39.94026;50.747936;-1.8690479;85.0;NaN;;0.0;3.216;;12 / 20;12576;2018-03-13 16:46:21:589
-4.465774;-2.690491;10.011948;-3.697311;-1.639434;8.933785;-0.71156;-0.960483;1.022837;-45.5736;95.1383;-79.9689;2147.4836;22.9523;21.8628;-28.0991;324.8772;7.0601;19.2393;5.0;1005.61;39.94026;50.747936;-1.8690479;85.0;NaN;;0.0;3.216;;12 / 20;12616;2018-03-13 16:46:21:629
-6.105804;-2.941879;9.841965;-3.988333;-1.896553;8.755951;-1.652914;-1.211822;1.240374;-22.8069;74.691;-50.0621;2147.4836;24.1516;24.263;-27.0493;327.2021;10.6185;23.7063;5.0;1005.6633;39.94026;50.747936;-1.8690479;85.0;NaN;;0.0;3.216;;12 / 20;12656;2018-03-13 16:46:21:669
-5.804138;-2.743164;10.608109;-4.061502;-1.965882;8.706887;-2.049647;-0.46398;1.939475;71.0646;-32.6083;-38.7089;2147.4836;24.3027;24.263;-27.0493;328.4859;11.9135;25.5552;5.0;1005.6633;39.94026;50.747936;-1.8690479;85.0;NaN;;0.0;3.216;;12 / 20;12696;2018-03-13 16:46:21:709
-4.846451;-1.948288;9.652817;-3.524907;-1.297608;9.058787;-1.235521;-0.460101;0.407096;135.5792;-108.1701;-36.268;2147.4836;24.0021;23.8129;-27.1988;327.494;9.2325;22.9079;5.0;1005.6567;39.94026;50.747936;-1.8690479;85.0;NaN;;0.0;3.216;;12 / 20;12737;2018-03-13 16:46:21:750
-3.429092;-0.554855;8.898651;-2.946651;-0.620236;9.332895;-0.449845;0.026305;-0.541658;90.169;-70.7559;1.0858;2147.4836;21.5622;20.8084;-31.6513;327.1721;4.9312;18.628;5.0;1005.5967;39.94026;50.747936;-1.8690479;85.0;NaN;;0.0;3.216;;12 / 20;12776;2018-03-13 16:46:21:789
-2.325363;0.177765;9.96167;-2.49589;-0.184002;9.481934;0.645281;0.478939;0.623147;52.3273;-66.8497;20.4342;2147.4836;21.4111;20.3583;-32.7011;329.0357;1.8543;15.7306;5.0;1005.5967;44.57985;50.747936;-1.8690479;85.0;NaN;;0.0;3.216;;12 / 20;12816;2018-03-13 16:46:21:829
-0.924759;1.075592;10.373474;-2.117973;0.1821;9.573474;1.430928;0.852869;0.999906;88.2159;-74.8449;-6.6051;2147.4836;20.6619;19.3085;-32.8522;329.0357;1.8543;15.7306;5.0;1005.5234;44.57985;50.747936;-1.8690479;85.0;NaN;;0.0;3.216;;12 / 20;12857;2018-03-13 16:46:21:870
-1.44429;0.86969;9.880264;-1.590241;0.777809;9.645545;0.263652;0.103279;0.04904;58.9184;-59.3424;-13.5013;2147.4836;17.511;14.8087;-33.7509;323.3669;-1.064;12.4748;5.0;1005.4833;44.57985;50.747936;-1.8690479;85.0;NaN;;0.0;3.216;;12 / 20;12896;2018-03-13 16:46:21:909
-0.206497;1.722031;11.170746;-1.194591;1.167864;9.663303;0.920641;0.517844;1.315476;51.6559;-50.4311;-6.6654;2147.4836;16.011;13.1592;-36.9019;330.58;-4.5492;9.362;5.0;1005.4833;44.57985;50.747936;-1.8690479;85.0;NaN;;0.0;3.216;;12 / 20;12936;2018-03-13 16:46:21:949
-0.443512;1.26712;11.046249;-0.748346;1.552069;9.65409;0.331643;0.460283;1.826481;111.6532;-131.8522;-55.0052;2147.4836;14.9612;12.709;-38.5513;327.5373;-6.8395;7.0472;5.0;1005.4866;44.57985;50.747936;-1.8690479;85.0;NaN;;0.0;3.216;;12 / 20;12977;2018-03-13 16:46:21:990
0.571625;1.305435;11.951263;0.126714;2.421806;9.502062;-0.158071;-1.284742;1.606324;170.979;-154.9231;-41.1507;2147.4836;10.3119;7.9086;-40.5014;328.3254;-10.7301;2.6082;5.0;1005.47;44.57985;50.747936;-1.8690479;85.0;NaN;;0.0;3.216;;12 / 20;13017;2018-03-13 16:46:22:030
0.107147;1.789063;9.327209;1.224168;3.912036;8.908859;-1.714009;-2.321146;0.790921;231.8313;-182.938;-50.8551;2147.4836;7.0114;1.7578;-41.1011;329.8412;-16.9932;-2.9691;5.0;1005.47;44.57985;50.747936;-1.8690479;85.0;NaN;;0.0;3.216;;12 / 20;13057;2018-03-13 16:46:22:070
1.040878;3.919907;8.683167;2.094413;5.38663;7.922628;-1.09174;-1.705403;0.615226;257.2828;-169.1439;-48.658;2147.4836;1.4618;-4.9911;-41.1011;327.7719;-29.5225;-12.1983;5.0;1005.46;44.57985;50.747936;-1.8690479;85.0;NaN;;0.0;3.216;;12 / 20;13096;2018-03-13 16:46:22:109
0.301071;5.53598;6.686402;2.618467;6.990319;6.359989;-2.431446;-1.12133;-0.105511;295.2469;-40.8482;4.3206;2147.4836;-3.4882;-13.8412;-40.6509;324.3084;-41.3371;-20.015;5.0;1005.3867;51.85544;50.747936;-1.8690479;85.0;NaN;;0.0;3.216;;12 / 20;13137;2018-03-13 16:46:22:150
2.151795;7.863144;3.040039;2.851379;7.937308;5.003916;-0.84592;-0.568525;-2.514333;189.8395;-51.1637;31.0539;2147.4836;-4.9881;-20.5917;-36.1511;318.0315;-54.0354;-29.6758;5.0;1005.3867;51.85544;50.747936;-1.8690479;85.0;NaN;;0.0;3.216;;12 / 20;13177;2018-03-13 16:46:22:190
3.540436;8.440155;2.549225;3.148583;8.377204;4.009897;0.356989;-0.205369;-0.44216;173.7259;-47.3178;21.1659;2034.0;-8.8882;-25.3922;-33.7509;316.3573;-58.6755;-38.1391;5.0;1005.2967;51.85544;50.747936;-1.8690479;85.0;NaN;;0.0;3.216;;12 / 20;13217;2018-03-13 16:46:22:230
3.291428;8.590988;1.232422;3.330613;8.678722;3.12365;-0.231281;-0.421995;-1.519402;125.0198;-2.7015;24.767;1476.0;-9.0378;-29.1412;-30.1514;303.6521;-62.2495;-46.8366;5.0;1005.22;51.85544;50.747936;-1.8690479;85.0;NaN;;0.0;3.216;;12 / 20;13257;2018-03-13 16:46:22:270
3.799011;9.115326;0.545273;3.495934;8.842208;2.400873;-0.014058;-0.079154;-1.808431;78.084;-5.9363;19.5791;1162.0;-9.0378;-29.7409;-28.801;294.3635;-64.3764;-55.5202;5.0;1005.22;51.85544;50.747936;-1.8690479;85.0;NaN;;0.0;3.216;;12 / 20;13296;2018-03-13 16:46:22:309
3.729569;9.158417;-0.082001;3.578239;8.891234;2.076663;0.166636;0.205488;-2.191323;4.4754;27.2062;9.5085;1162.0;-9.3384;-30.6412;-27.7512;294.3635;-64.3764;-55.5202;5.0;1005.1934;51.85544;50.747936;-1.8690479;85.0;NaN;;0.0;3.216;;12 / 20;13336;2018-03-13 16:46:22:349
4.253906;8.071442;2.582749;3.547865;8.840325;2.330599;0.67294;-0.727975;0.098601;-34.648;18.1113;-10.9991;1006.0;-9.7885;-30.7922;-27.1515;288.4039;-65.0469;-59.8709;5.0;1005.19;51.85544;50.747936;-1.8690479;85.0;NaN;;0.0;3.216;;11 / 19;13377;2018-03-13 16:46:22:390
2.60669;8.248612;3.178894;3.505874;8.840625;2.392189;-0.940118;-0.679273;0.828895;4.109;-7.9506;-3.9805;982.0;-9.7885;-29.4418;-27.301;293.6527;-64.3509;-56.699;5.0;1005.19;51.85544;50.747936;-1.8690479;85.0;NaN;;0.0;3.216;;11 / 19;13417;2018-03-13 16:46:22:430
2.793442;8.215103;2.767105;3.554952;8.88279;2.151456;-0.807183;-0.745859;0.554602;36.3353;-42.9849;5.4196;982.0;-9.4879;-29.7409;-27.7512;293.3695;-64.5205;-56.2356;5.0;1005.22;58.06807;50.747936;-1.8690479;85.0;NaN;;0.0;3.216;;11 / 19;13456;2018-03-13 16:46:22:469
2.709641;8.174393;2.771881;3.651982;8.937309;1.719859;-0.935344;-0.844336;1.045666;73.1401;-50.7362;11.2789;1001.0;-9.4879;-30.0415;-27.301;290.9682;-64.9302;-58.8177;5.0;1005.2667;58.06807;50.747936;-1.8690479;85.0;NaN;;0.0;3.216;;11 / 19;13496;2018-03-13 16:46:22:509
2.779083;8.24144;0.906799;3.863787;8.960993;0.970644;-0.706619;-0.542027;-0.33297;91.6334;-67.0325;31.7865;1001.0;-11.1389;-32.1411;-25.2014;286.4863;-65.6928;-64.7824;5.0;1005.2667;58.06807;50.747936;-1.8690479;85.0;NaN;;0.0;3.216;;11 / 19;13536;2018-03-13 16:46:22:549
4.577118;9.086594;-0.805054;4.029011;8.930863;0.420869;0.415702;0.04639;-1.076837;69.0503;-48.5995;27.4528;956.0;-14.1388;-32.7408;-20.7016;280.6578;-66.0312;-75.8982;5.0;1005.28;58.06807;50.747936;-1.8690479;85.0;NaN;;0.0;3.216;;11 / 19;13577;2018-03-13 16:46:22:590
5.25708;9.110535;-1.702881;4.237038;8.844055;0.024125;0.956492;0.202493;-1.721203;2.705;6.3926;25.1945;956.0;-15.1886;-33.342;-20.2515;272.2192;-65.2656;-87.0411;5.0;1005.24;58.06807;50.747936;-1.8690479;85.0;NaN;;0.0;3.216;;11 / 19;13616;2018-03-13 16:46:22:629
5.39354;9.057861;-0.359726;4.383774;8.769739;0.211167;0.948473;0.21221;-0.837149;-35.1979;36.2391;14.3913;813.0;-15.1886;-33.1909;-20.2515;267.6388;-64.0348;-89.5444;5.0;1005.24;58.06807;50.747936;-1.8690479;85.0;NaN;;0.0;3.216;;11 / 19;13657;2018-03-13 16:46:22:670
4.220383;8.344391;0.502182;4.406248;8.750927;0.420292;0.059189;-0.362792;0.074884;-21.1598;21.5908;-5.1398;781.0;-15.1886;-32.5912;-20.401;269.4019;-63.2146;-85.7568;5.0;1005.2233;58.06807;50.747936;-1.8690479;85.0;NaN;;0.0;3.216;;11 / 19;13697;2018-03-13 16:46:22:710
4.138977;8.710693;-0.362122;4.353509;8.764234;0.636838;-0.202582;-0.125862;-0.95497;-11.6994;33.431;-5.5673;781.0;-15.1886;-31.9916;-21.7514;273.4508;-63.23;-83.2016;5.0;1005.2466;58.06807;50.747936;-1.8690479;85.0;NaN;;0.0;3.216;;11 / 19;13737;2018-03-13 16:46:22:750
4.883576;8.964478;-0.256775;4.339022;8.75132;0.870455;-0.090709;-0.21877;-1.284725;-50.5176;50.4599;0.5971;781.0;-15.1886;-32.2922;-22.6517;276.401;-63.3191;-80.429;5.0;1005.2466;54.0365;50.747936;-1.8690479;85.0;NaN;;0.0;3.216;;11 / 19;13777;2018-03-13 16:46:22:790
4.852448;8.930969;0.200516;4.198314;8.740376;1.466419;0.907994;0.226274;-1.313511;-83.2326;61.0193;-34.1313;781.0;-12.6389;-32.1411;-24.9023;277.7811;-62.9841;-73.8407;5.0;1005.2834;54.0365;50.747936;-1.8690479;85.0;NaN;;0.0;3.216;;11 / 19;13816;2018-03-13 16:46:22:829
4.30658;8.528732;0.557251;3.80768;8.718013;2.380804;0.412904;-0.150813;-1.887632;-110.8812;98.9833;-46.2774;877.0;-10.6155;-31.5445;-26.6052;285.2125;-62.9539;-62.7803;5.0;1005.29;54.0365;50.747936;-1.8690479;85.0;NaN;;0.0;3.216;;11 / 19;13856;2018-03-13 16:46:22:869
3.619446;8.490433;0.775116;3.390026;8.635303;3.179568;0.341841;-0.084676;-2.545438;-158.6108;149.0323;-61.6584;919.0;-8.0643;-28.8437;-27.8061;285.2125;-62.9539;-62.7803;5.0;1005.29;54.0365;50.747936;-1.8690479;85.0;NaN;;0.0;3.216;;11 / 19;13897;2018-03-13 16:46:22:910
0.286713;6.5224;2.690491;2.542083;8.244299;4.66259;-1.758812;-1.492789;-2.492865;-249.0035;222.5186;-50.3672;919.0;-0.1144;-24.6445;-35.3058;306.2749;-57.2125;-28.5996;5.0;1005.3066;54.0365;50.747936;-1.8690479;85.0;NaN;;0.0;3.216;;11 / 19;13936;2018-03-13 16:46:22:949
-1.420349;5.325302;4.991318;1.318736;7.124088;6.608987;-2.699169;-1.918323;-1.476057;-277.8123;240.5241;-5.8112;977.0;1.2344;-21.6431;-38.0051;306.2749;-57.2125;-28.5996;5.0;1005.34;54.0365;50.747936;-1.8690479;85.0;NaN;;0.0;3.216;;11 / 19;13976;2018-03-13 16:46:22:989
-0.539291;4.920685;6.451767;-0.025841;5.721106;7.964839;-0.52183;-0.832117;-1.586425;-273.0519;293.6855;16.7107;1140.9999;11.1343;-10.3943;-39.505;324.4911;-35.6894;0.1859;5.0;1005.34;54.0365;50.747936;-1.8690479;85.0;NaN;;0.0;3.216;;11 / 19;14017;2018-03-13 16:46:23:030
-0.496185;3.670899;8.580215;-1.290136;4.366252;8.685723;1.171758;-0.490992;-0.468987;-245.3413;142.2568;-76.4902;1496.9999;17.5842;-4.9942;-38.9053;324.4911;-35.6894;0.1859;5.0;1005.3699;54.0365;50.747936;-1.8690479;85.0;NaN;;0.0;3.216;;11 / 19;14057;2018-03-13 16:46:23:070
-1.966232;1.140228;9.966461;-2.070747;2.703402;9.196413;-0.264479;-1.501011;0.413233;-187.4195;5.4773;-80.7628;1496.9999;20.8847;4.9057;-36.055;312.9522;-21.3963;11.4187;5.0;1005.41;49.32454;50.747936;-1.8690479;85.0;NaN;;0.0;3.216;;11 / 19;14096;2018-03-13 16:46:23:109
-1.5233;-0.279526;9.976044;-1.932824;1.152423;9.544972;0.272797;-1.663343;0.442987;-212.1996;-46.4024;-112.44;2147.4836;20.8847;10.6064;-35.9055;322.8475;-13.1013;12.4847;5.0;1005.41;49.32454;50.747936;-1.8690479;85.0;NaN;;0.0;3.216;;11 / 19;14137;2018-03-13 16:46:23:150
-1.341339;-3.645782;10.876266;-1.617999;-0.804514;9.638736;0.067544;-2.593872;0.6271;-316.6305;-59.8915;-60.9257;2147.4836;16.3849;18.8568;-34.8557;333.5842;-0.0259;10.3576;5.0;1005.45;49.32454;50.747936;-1.8690479;85.0;NaN;;0.0;3.216;;11 / 19;14176;2018-03-13 16:46:23:189
-2.186493;-5.666488;13.799576;-1.239209;-2.33454;9.443763;-0.43275;-3.051444;5.326066;-186.992;-69.9009;-71.1188;2147.4836;14.7354;24.7055;-29.4556;331.5855;9.5623;8.4772;5.0;1005.43;49.32454;50.747936;-1.8690479;85.0;NaN;;0.0;3.216;;11 / 19;14216;2018-03-13 16:46:23:229
-0.649414;-4.146164;11.747742;-0.323487;-3.515881;9.149006;-0.691181;-0.836667;2.581247;-101.482;-146.1341;-63.6727;2147.4836;14.1357;29.8065;-28.1052;327.9089;19.2479;4.4925;5.0;1005.43;49.32454;50.747936;-1.8690479;85.0;NaN;;0.0;3.216;;11 / 19;14257;2018-03-13 16:46:23:270
-1.142624;-3.85646;9.011169;0.330886;-4.108502;8.898376;-1.460742;0.285555;-0.089296;-82.4999;-43.0453;6.7012;2147.4836;11.4349;31.0059;-27.5055;325.8796;23.6178;-1.4909;5.0;1005.35;49.32454;50.747936;-1.8690479;85.0;NaN;;0.0;3.216;;11 / 19;14297;2018-03-13 16:46:23:310
3.801407;-3.710419;6.928223;1.156033;-5.000597;8.356315;3.321787;1.400051;-1.806478;-170.5733;-153.9466;-39.014;2147.4836;6.0349;32.8064;-26.1551;334.6045;28.0093;-4.8304;5.0;1005.2433;49.32454;50.747936;-1.8690479;85.0;NaN;;0.0;3.216;;11 / 19;14336;2018-03-13 16:46:23:349
0.758377;-4.1725;9.11412;1.878312;-5.862472;7.633724;-1.007769;1.633403;1.210656;-209.0252;-100.2353;-34.2537;2147.4836;3.3356;35.6567;-20.755;334.6045;28.0093;-4.8304;5.0;1005.2433;49.32454;50.747936;-1.8690479;85.0;NaN;;0.0;3.216;;11 / 19;14376;2018-03-13 16:46:23:389
2.077576;-6.341644;7.019196;2.084886;-6.850862;6.69995;-0.714695;0.60963;0.305728;-129.5581;-7.3403;41.9183;2147.4836;1.535;38.8062;-16.5558;341.0866;36.7129;-13.8233;5.0;1005.1934;49.7471;50.747936;-1.8690479;85.0;NaN;;0.0;3.216;;11 / 19;14417;2018-03-13 16:46:23:430
2.747955;-7.3927;6.547547;1.97911;-7.480862;6.024135;0.517419;0.141618;0.264289;-121.5621;-32.9746;3.8319;2147.4836;1.0849;40.9058;-11.4548;344.5182;44.3143;-17.2851;5.0;1005.16;49.7471;50.747936;-1.8690479;85.0;NaN;;0.0;3.216;;11 / 19;14456;2018-03-13 16:46:23:469
-2.322967;-6.530792;5.060745;2.321927;-7.809818;5.457634;-4.602561;0.832607;-0.800002;-70.7201;-94.0708;-21.8024;2147.4836;1.0849;42.4057;-8.905;348.5762;49.7148;-18.1869;5.0;1005.16;49.7471;50.747936;-1.8690479;85.0;NaN;;0.0;3.216;;11 / 19;14496;2018-03-13 16:46:23:509
1.965042;-9.638458;5.343262;2.283989;-8.038315;5.13218;-0.411441;-1.578552;0.586367;-86.894;26.4736;56.3839;2147.4836;0.6348;43.1564;-5.7556;348.4628;52.7858;-23.0471;5.0;1005.1833;49.7471;50.747936;-1.8690479;85.0;NaN;;0.0;3.216;;11 / 19;14537;2018-03-13 16:46:23:550
4.234757;-8.355163;2.549225;2.118481;-8.54685;4.316685;2.317335;0.180256;-1.904091;-182.8419;-3.4341;-45.7896;2147.4836;0.1846;43.4555;-3.5049;353.1906;56.6151;-23.2598;5.0;1005.17;49.7471;50.747936;-1.8690479;85.0;NaN;;0.0;3.216;;11 / 19;14577;2018-03-13 16:46:23:590
1.984207;-9.695923;5.446213;2.439908;-8.981014;3.091704;-0.173473;0.255734;1.563141;-182.292;10.5436;-5.9336;2147.4836;-0.5646;43.6066;2.0447;358.486;62.8273;-30.7224;5.0;1005.16;49.7471;50.747936;-1.8690479;85.0;NaN;;0.0;3.216;;11 / 19;14617;2018-03-13 16:46:23:630
3.854065;-10.37587;5.252274;2.095903;-9.217244;2.611511;0.936619;-1.259828;2.954116;18.1471;24.7032;78.6007;2147.4836;-0.7156;43.6066;6.694;10.6239;66.3208;-38.2798;5.0;1005.16;49.7471;50.747936;-1.8690479;85.0;NaN;;0.0;3.216;;11 / 19;14657;2018-03-13 16:46:23:670
2.372055;-9.813232;3.00412;1.612161;-9.243901;2.849845;0.835806;-0.492374;0.110651;35.1148;29.0981;31.7865;2147.4836;-0.7156;43.6066;6.694;12.9095;70.6038;-35.2966;5.0;1005.1199;49.7471;50.747936;-1.8690479;85.0;NaN;;0.0;3.216;;11 / 19;14696;2018-03-13 16:46:23:709
0.705704;-10.27771;3.882797;1.379068;-9.213625;3.062299;-1.125347;-1.178983;0.290036;27.0585;11.1539;26.415;2147.4836;2.5848;43.6066;6.2439;0.303;70.2608;-27.5216;5.0;1005.1301;50.73862;50.747936;-1.8690479;85.0;NaN;;0.0;3.216;;11 / 19;14736;2018-03-13 16:46:23:749
1.016937;-10.782898;7.689575;1.278739;-9.124493;3.3584;-0.209537;-1.42316;3.655247;108.7847;0.0455;0.1093;2147.4836;2.7344;43.7561;5.4947;357.2675;68.5034;-20.8447;5.0;1005.1301;50.73862;50.747936;-1.8690479;85.0;NaN;;0.0;3.216;;11 / 19;14777;2018-03-13 16:46:23:790
2.884415;-9.128494;4.893143;1.631057;-8.400587;4.789591;1.002321;-0.873628;-7.74E-4;294.3316;-48.7219;-99.0122;2147.4836;2.2842;44.2062;-4.1046;350.9627;58.9393;-18.8059;5.0;1005.1533;50.73862;50.747936;-1.8690479;85.0;NaN;;0.0;3.216;;11 / 19;14816;2018-03-13 16:46:23:829
2.731186;-6.585861;6.497269;2.733415;-6.791994;6.524389;0.533471;0.676732;-0.222012;323.5669;-74.2958;-147.352;2147.4836;1.091;42.5598;-11.0535;350.9627;58.9393;-18.8059;5.0;1005.1867;50.73862;50.747936;-1.8690479;85.0;NaN;;0.0;3.216;;11 / 19;14856;2018-03-13 16:46:23:869
1.962647;-5.005676;8.477264;3.3554;-5.361449;7.494434;-1.398822;-0.072767;0.561379;370.8087;-40.9094;-55.8602;2147.4836;-2.6596;36.5601;-21.4035;340.6589;43.8355;-22.7314;5.0;1005.1867;50.73862;50.747936;-1.8690479;85.0;NaN;;0.0;3.216;;11 / 19;14897;2018-03-13 16:46:23:910
2.941879;-4.19165;8.098984;3.536825;-2.944846;8.659627;-0.591629;-1.435905;-0.812941;361.4698;30.3798;8.4707;2147.4836;-4.1595;28.7598;-29.2023;340.7383;27.7501;-24.0056;5.0;1005.2333;50.73862;50.747936;-1.8690479;85.0;NaN;;0.0;3.216;;11 / 19;14936;2018-03-13 16:46:23:949
4.28743;-1.972229;8.005615;3.268555;-0.686132;9.220421;1.000731;-1.692287;-1.312405;287.862;17.2571;-26.5024;2147.4836;-3.1097;22.76;-35.9528;338.1108;12.7385;-21.0449;5.0;1005.2867;50.73862;50.747936;-1.8690479;85.0;NaN;;0.0;3.216;;11 / 19;14977;2018-03-13 16:46:23:990
2.877243;-0.143066;8.079834;3.550332;0.956341;9.091257;-0.22246;-1.299576;-1.302294;201.4969;-89.0665;-55.4939;2147.4836;-2.6596;13.4598;-39.1022;327.9735;4.012;-19.519;5.0;1005.2867;50.73862;50.747936;-1.8690479;85.0;NaN;;0.0;3.216;;11 / 19;15017;2018-03-13 16:46:24:030
2.257141;1.370071;7.342423;3.961672;1.905259;8.766158;-2.060264;-0.858245;-1.198472;118.9769;-60.319;-21.68;2147.4836;-4.7592;7.3105;-40.4526;319.0074;-9.1918;-23.1839;5.0;1005.3699;50.73862;50.747936;-1.8690479;85.0;NaN;;0.0;3.216;;11 / 19;15056;2018-03-13 16:46:24:069
4.577118;2.308609;8.211518;4.23359;2.254347;8.553656;0.24462;-0.013666;-0.433397;10.3347;-40.1768;10.8514;2147.4836;-7.46;7.1594;-40.7532;324.1958;-13.1173;-25.6863;5.0;1005.42;43.918;50.747936;-1.8690479;85.0;NaN;;0.0;3.216;;11 / 19;15096;2018-03-13 16:46:24:109
4.727951;2.516907;7.763794;4.686956;2.311536;8.29817;0.444055;0.103074;-0.262626;13.8134;-126.7246;-20.7035;2147.4836;-8.6594;7.0099;-40.7532;325.0603;-13.3949;-27.998;5.0;1005.42;43.918;50.747936;-1.8690479;85.0;NaN;;0.0;3.216;;11 / 19;15137;2018-03-13 16:46:24:150
4.045609;2.90715;6.154892;5.354695;2.45774;7.839462;-1.435525;0.375124;-1.713033;27.1197;-219.9255;-11.243;2147.4836;-9.8587;6.7093;-40.6021;325.0603;-13.3949;-27.998;5.0;1005.4467;43.918;50.747936;-1.8690479;85.0;NaN;;0.0;3.216;;11 / 19;15176;2018-03-13 16:46:24:189
6.504456;1.844132;3.89238;6.680344;2.56414;6.705861;-0.335588;-0.582106;-2.965109;-38.4327;-329.1788;-19.7269;2147.4836;-19.31;5.3604;-36.1023;318.3058;-14.9186;-37.7944;5.0;1005.3833;43.918;50.747936;-1.8690479;85.0;NaN;;0.0;3.216;;11 / 19;15216;2018-03-13 16:46:24:229
9.073425;3.646958;6.435013;8.196976;2.407355;4.81504;1.722517;-0.155328;-2.058936;-131.3888;-359.6347;-53.7847;2147.4836;-26.9592;5.3604;-31.4529;321.778;-14.9647;-49.682;5.0;1005.3833;43.918;50.747936;-1.8690479;85.0;NaN;;0.0;3.216;;11 / 19;15257;2018-03-13 16:46:24:270
9.559448;2.794632;5.683243;8.759617;2.463209;3.656789;0.675267;-0.027188;2.436797;-33.7938;-204.3619;-78.321;2147.4836;-30.2597;7.1594;-22.0032;332.4863;-14.2103;-59.5693;5.0;1005.29;43.918;50.747936;-1.8690479;85.0;NaN;;0.0;3.216;;11 / 19;15297;2018-03-13 16:46:24:310
8.254608;1.880035;2.501343;9.079733;3.012372;2.157416;-0.534183;-1.121042;0.91629;25.2269;-195.2066;-76.4291;2147.4836;-36.8591;6.7093;-18.103;329.2487;-15.6748;-71.1709;5.0;1005.2233;43.918;50.747936;-1.8690479;85.0;NaN;;0.0;3.216;;11 / 19;15336;2018-03-13 16:46:24:349
9.231445;3.342896;1.852509;9.121989;3.50198;0.83418;0.025037;-0.244185;0.95959;25.8983;-145.3403;-50.4276;2147.4836;-38.2095;1.7593;-13.1531;334.8284;-19.0467;-79.5492;5.0;1005.2233;43.918;50.747936;-1.8690479;85.0;NaN;;0.0;3.216;;12 / 20;15377;2018-03-13 16:46:24:390
9.487625;4.05159;2.443878;9.061534;3.715822;0.501662;0.410816;0.405691;1.879206;12.5929;49.667;-16.8584;2147.4836;-38.8092;1.9104;-11.9522;329.8157;-21.5658;-86.4508;5.0;1005.2;42.77007;50.747936;-1.8690479;85.0;NaN;;0.0;3.216;;12 / 20;15417;2018-03-13 16:46:24:430
8.568253;4.295792;2.52768;8.979434;3.571051;1.669653;-0.52432;0.668849;0.887715;5.1468;225.3259;41.6744;2147.4836;-39.4089;1.3092;-11.5021;331.0592;-22.3475;-85.4734;5.0;1005.2;42.77007;50.747936;-1.8690479;85.0;NaN;;0.0;3.216;;12 / 20;15457;2018-03-13 16:46:24:470
7.703949;2.780258;2.376846;8.692946;3.106437;3.30955;-0.785306;0.213686;-0.835821;-39.1644;439.254;135.4847;2147.4836;-32.8094;4.9103;-24.1028;328.1685;-18.4676;-69.1573;5.0;1005.2;42.77007;50.747936;-1.8690479;85.0;NaN;;0.0;3.216;;12 / 20;15496;2018-03-13 16:46:24:509
7.8452;1.851318;4.191651;7.503121;2.042262;5.975176;0.236894;0.124931;-2.612859;-99.5289;461.4708;155.8096;2147.4836;-20.0592;8.6594;-34.7534;318.0538;-12.02;-51.4676;5.0;1005.2;42.77007;50.747936;-1.8690479;85.0;NaN;;0.0;3.216;;12 / 20;15536;2018-03-13 16:46:24:549
6.08786;1.487396;7.493256;5.268794;0.901878;8.221729;1.454335;0.539861;-1.221209;-74.3824;366.9278;77.6242;2147.4836;-12.41;12.1094;-37.4527;318.0538;-12.02;-51.4676;5.0;1005.2734;42.77007;50.747936;-1.8690479;85.0;NaN;;0.0;3.216;;12 / 20;15576;2018-03-13 16:46:24:589
3.054413;0.014954;9.636063;3.720526;0.633601;9.051332;-0.301717;-0.499116;0.255935;0.7519;186.9352;-8.0083;2147.4836;-5.9601;14.0594;-39.1022;324.1939;-4.5009;-29.4572;5.0;1005.2734;42.77007;50.747936;-1.8690479;85.0;NaN;;0.0;3.216;;12 / 20;15617;2018-03-13 16:46:24:630
2.010544;0.661392;10.521912;2.453575;0.817331;9.459509;-0.394681;-0.172941;1.01923;32.4291;207.6255;5.3584;2147.4836;0.0412;13.9099;-39.1022;325.4665;-3.9271;-19.8659;5.0;1005.3933;42.77007;50.747936;-1.8690479;85.0;NaN;;0.0;3.216;;12 / 20;15656;2018-03-13 16:46:24:669
1.423966;0.721252;10.476425;0.80658;0.888757;9.73293;0.59026;-0.220207;0.718246;6.6112;260.7878;30.0161;2147.4836;4.9912;13.9099;-39.1022;331.3966;-5.0821;-11.045;5.0;1005.5534;42.77007;50.747936;-1.8690479;85.0;NaN;;0.0;3.216;;12 / 20;15696;2018-03-13 16:46:24:709
0.844559;1.638229;11.309616;-0.232763;0.944011;9.758332;1.254771;0.11605;1.281339;15.2174;157.455;6.3349;2147.4836;12.6404;13.9099;-39.1022;330.5293;-5.3119;-1.335;5.0;1005.5534;40.89206;50.747936;-1.8690479;85.0;NaN;;0.0;3.216;;12 / 20;15737;2018-03-13 16:46:24:750
-0.194519;1.113892;9.851547;-1.486277;1.004639;9.641165;1.315987;0.128113;0.053647;-35.8081;213.2409;9.5697;2147.4836;15.6403;13.7604;-37.4527;327.3291;-5.7695;3.6358;5.0;1005.6833;40.89206;50.747936;-1.8690479;85.0;NaN;;0.0;3.216;;12 / 20;15776;2018-03-13 16:46:24:789
-1.032486;1.307831;8.666412;-3.262962;0.589324;9.229094;1.795127;0.672858;-0.66207;-77.1285;266.2808;7.1891;2147.4836;21.1899;13.7604;-34.7534;327.5435;-4.499;15.5627;5.0;1005.74;40.89206;50.747936;-1.8690479;85.0;NaN;;0.0;3.216;;12 / 20;15816;2018-03-13 16:46:24:829
-4.291;-0.511765;10.124481;-4.342579;0.263771;8.78879;1.24822;0.089591;0.488438;-88.6644;291.8539;18.725;2147.4836;27.1912;17.659;-28.3035;328.1382;-1.5413;26.2942;5.0;1005.74;40.89206;50.747936;-1.8690479;85.0;NaN;;0.0;3.216;;12 / 20;15857;2018-03-13 16:46:24:870
-6.450577;-0.722458;11.000763;-6.213432;-0.072796;7.586722;-0.00794;-0.656239;3.734782;-19.6945;310.1645;54.8575;2147.4836;33.6411;17.659;-21.8521;325.0831;0.4253;39.3171;5.0;1005.7133;40.89206;50.747936;-1.8690479;85.0;NaN;;0.0;3.216;;12 / 20;15898;2018-03-13 16:46:24:911
-7.616546;0.975037;5.15651;-7.648533;0.299586;6.130301;0.239918;0.537289;-0.767222;37.0067;194.7476;17.9924;2147.4836;36.3678;16.6458;-15.1596;329.2034;-1.7506;51.2878;5.0;1005.6733;40.89206;50.747936;-1.8690479;85.0;NaN;;0.0;3.216;;12 / 20;15936;2018-03-13 16:46:24:949
-8.193557;0.524918;4.847656;-8.263625;0.399844;5.265265;0.191596;0.055668;-0.530374;4.5366;136.4587;-0.1346;2010.0;38.1683;14.8468;-10.3592;324.0266;-2.3368;57.4963;5.0;1005.6733;40.89206;50.747936;-1.8690479;85.0;NaN;;0.0;3.216;;12 / 20;15976;2018-03-13 16:46:24:989
-9.213486;0.39563;4.749497;-8.645574;0.423508;4.60924;-0.517762;0.040462;-1.445472;7.7713;76.888;0.6583;2010.0;38.3179;14.9963;-10.5087;332.1491;-2.3628;61.0634;5.0;1005.66;40.89206;50.747936;-1.8690479;85.0;NaN;;0.0;3.216;;12 / 20;16017;2018-03-13 16:46:25:030
-8.880692;0.412399;4.804566;-8.71506;0.55305;4.462315;-0.301173;-0.301402;0.15224;33.1617;18.8439;25.5609;2010.0;38.6185;14.8468;-9.3094;330.3689;-3.2329;62.8865;5.0;1005.6199;43.0367;50.747936;-1.8690479;85.0;NaN;;0.0;3.216;;12 / 20;16056;2018-03-13 16:46:25:069
-8.013992;1.621475;3.011307;-8.740022;0.817109;4.372042;0.905446;0.818224;-1.441347;12.9592;4.318;10.0575;1988.9999;38.6185;14.6957;-8.5587;332.6742;-4.7795;63.4243;5.0;1005.6199;43.0367;50.747936;-1.8690479;85.0;NaN;;0.0;3.216;;12 / 20;16096;2018-03-13 16:46:25:109
-8.210312;1.580765;5.13736;-8.754208;0.891691;4.328871;0.578443;0.68562;0.956201;-9.1352;-2.5179;-2.3325;1968.0;38.768;14.5462;-8.1085;331.3002;-5.2639;63.6944;5.0;1005.5633;43.0367;50.747936;-1.8690479;85.0;NaN;;0.0;3.216;;12 / 20;16137;2018-03-13 16:46:25:150
-9.622894;0.934326;4.043213;-8.751832;0.906394;4.330622;-0.574876;0.113577;-0.104122;-6.2667;-7.2791;11.6452;1968.0;38.768;14.0961;-7.959;329.9967;-5.1925;63.7656;5.0;1005.5366;43.0367;50.747936;-1.8690479;85.0;NaN;;0.0;3.216;;12 / 20;16177;2018-03-13 16:46:25:190
-8.787308;1.58316;5.240311;-8.669414;0.976146;4.478704;-0.062903;0.575525;0.783686;15.0347;-40.6655;6.3961;1968.0;38.9175;14.0961;-7.959;329.9967;-5.1925;63.7656;5.0;1005.5366;43.0367;50.747936;-1.8690479;85.0;NaN;;0.0;3.216;;12 / 20;16216;2018-03-13 16:46:25:229
-9.208694;1.178543;5.556336;-8.523033;1.030919;4.739778;-0.575981;0.14621;0.758389;6.856;-46.8912;2.5502;1968.0;38.9175;13.797;-10.8093;330.0786;-5.9046;62.0867;5.0;1005.5134;43.0367;50.747936;-1.8690479;85.0;NaN;;0.0;3.216;;12 / 20;16257;2018-03-13 16:46:25:270
-9.639648;1.712448;4.593872;-8.142395;1.134782;5.346405;-1.065553;0.472514;-0.30048;24.6779;-145.4627;7.433;1948.9999;38.9175;13.4964;-11.1099;332.6604;-6.0343;60.921;5.0;1005.48;43.0367;50.747936;-1.8690479;85.0;NaN;;0.0;3.216;;12 / 20;16296;2018-03-13 16:46:25:309
-6.536758;2.428314;6.310517;-7.129335;1.401679;6.586219;0.723316;1.114706;-0.668833;90.1078;-279.191;-26.38;1948.9999;38.6185;11.8469;-13.5086;326.897;-6.6449;56.7106;5.0;1005.48;43.0367;50.747936;-1.8690479;85.0;NaN;;0.0;3.216;;12 / 20;16336;2018-03-13 16:46:25:349
-5.016449;1.063614;6.138138;-5.527876;1.533542;7.953692;0.403621;-0.403308;-2.097952;23.7625;-361.1612;-30.8353;1964.9999;33.3679;11.5463;-24.1592;328.6717;-8.2175;47.2676;5.0;1005.4567;37.29425;50.747936;-1.8690479;85.0;NaN;;0.0;3.216;;12 / 20;16376;2018-03-13 16:46:25:389
-2.955032;-0.241226;9.07103;-3.950957;1.379578;8.868884;0.649907;-1.531007;-0.026652;-56.2545;-276.3829;-41.3335;2002.0;27.6688;11.5463;-29.8599;330.9483;-8.9967;34.7996;5.0;1005.4134;37.29425;50.747936;-1.8690479;85.0;NaN;;0.0;3.216;;12 / 20;16417;2018-03-13 16:46:25:430
-3.522461;0.146637;7.378327;-2.284652;0.830961;9.50054;-1.632453;-0.534904;-2.279952;-76.2131;-182.6941;59.8014;2147.4836;16.2689;14.2471;-36.0092;337.4961;-4.8608;13.5215;5.0;1005.4134;37.29425;50.747936;-1.8690479;85.0;NaN;;0.0;3.216;;12 / 20;16456;2018-03-13 16:46:25:469
3.037644;1.307831;13.689453;-0.684723;0.580229;9.765494;3.41576;0.562999;3.680246;6.1845;-227.9215;-23.0841;2147.4836;15.0681;15.4465;-36.1588;324.0495;-3.392;4.0108;5.0;1005.3833;37.29425;50.747936;-1.8690479;85.0;NaN;;0.0;3.216;;12 / 20;16497;2018-03-13 16:46:25:510
-1.666962;0.675751;7.761399;0.086358;0.955053;9.759651;-1.460982;-0.084457;-0.712247;77.4126;-28.5194;6.2125;2147.4836;10.8688;14.9963;-37.6587;328.6669;-5.5888;-0.507;5.0;1005.3801;37.29425;50.747936;-1.8690479;85.0;NaN;;0.0;3.216;;12 / 20;16536;2018-03-13 16:46:25:549
2.850906;1.257553;9.248199;0.300483;1.331409;9.711203;1.74737;0.094343;-1.194212;26.9361;-19.7304;40.5755;2147.4836;8.0185;10.6461;-39.7598;331.199;-7.4992;-1.2246;5.0;1005.3801;37.29425;50.747936;-1.8690479;85.0;NaN;;0.0;3.216;;12 / 20;16577;2018-03-13 16:46:25:590
1.225235;0.864899;11.90097;0.638126;1.185632;9.713778;0.66521;-0.1612;2.129622;-40.9348;-35.5992;-6.4827;2147.4836;7.5684;11.2457;-39.7598;325.931;-6.9441;-3.7585;5.0;1005.41;37.29425;50.747936;-1.8690479;85.0;NaN;;0.0;3.216;;12 / 20;16616;2018-03-13 16:46:25:629
0.839767;1.595139;8.87471;0.665782;1.124524;9.719186;0.06248;0.406448;-0.937386;9.2357;-66.6661;-3.7969;2147.4836;7.5684;13.4964;-39.7598;328.4157;-6.5846;-3.9187;5.0;1005.4733;37.29425;50.747936;-1.8690479;85.0;NaN;;0.0;3.216;;12 / 20;16657;2018-03-13 16:46:25:670
1.337769;0.742798;11.565796;1.178122;1.135296;9.669204;0.205459;-0.380902;1.746687;-5.5341;-56.1068;-15.0277;2147.4836;6.6681;12.8967;-39.7598;325.9041;-6.6479;-6.9468;5.0;1005.4733;40.08777;50.747936;-1.8690479;85.0;NaN;;0.0;3.216;;12 / 20;16696;2018-03-13 16:46:25:709
0.662598;0.472244;10.555435;1.164765;1.075158;9.677693;-0.356351;-0.692718;0.639424;-22.8681;16.7693;1.94;2147.4836;5.1682;12.8967;-39.7598;330.4827;-6.2943;-6.8629;5.0;1005.59;40.08777;50.747936;-1.8690479;85.0;NaN;;0.0;3.216;;12 / 20;16737;2018-03-13 16:46:25:750
1.663376;1.410782;11.118073;1.124409;0.971236;9.69344;0.458846;0.357049;1.360166;24.6167;-31.1439;1.6349;2147.4836;5.0186;13.1958;-39.7598;330.3385;-5.6838;-6.6166;5.0;1005.7634;40.08777;50.747936;-1.8690479;85.0;NaN;;0.0;3.216;;12 / 20;16777;2018-03-13 16:46:25:790
0.526138;0.508163;9.698318;1.294282;1.217698;9.644296;-0.698886;-0.696557;-0.037669;35.7863;-9.6597;-12.9522;2147.4836;4.5685;13.0463;-39.7598;329.9176;-7.1329;-7.6435;5.0;1005.7634;40.08777;50.747936;-1.8690479;85.0;NaN;;0.0;3.216;;12 / 20;16817;2018-03-13 16:46:25:830
0.662598;1.580765;8.910614;1.310073;1.385282;9.619516;-0.950381;-0.13884;-0.936008;18.5746;-12.2843;16.8943;2147.4836;4.2679;10.4965;-39.7598;328.8269;-7.871;-7.5693;5.0;1005.9;40.08777;50.747936;-1.8690479;85.0;NaN;;0.0;3.216;;12 / 20;16856;2018-03-13 16:46:25:869
2.089539;1.745972;9.913788;1.449955;1.445111;9.590604;0.670292;0.793693;-0.046691;12.7765;-15.0915;-9.7174;2147.4836;4.2679;10.9467;-39.9094;329.1314;-8.474;-8.5971;5.0;1005.9434;40.08777;50.747936;-1.8690479;85.0;NaN;;0.0;3.216;;12 / 20;16897;2018-03-13 16:46:25:910
0.703308;1.070801;9.638458;1.508872;1.562184;9.56312;-0.837979;-0.541205;-0.027124;22.3584;-3.2505;16.5883;2147.4836;3.9261;10.8551;-39.8193;329.1534;-9.1662;-8.9662;5.0;1005.9434;40.08777;50.747936;-1.8690479;85.0;NaN;;0.0;3.216;;12 / 20;16936;2018-03-13 16:46:25:949
2.427124;1.863281;9.346359;1.611919;1.664687;9.528952;0.948417;0.128874;-0.310639;-3.7646;-2.8842;10.9126;2147.4836;3.9261;10.7056;-39.8193;328.9115;-9.7094;-9.407;5.0;1005.9766;40.08777;50.747936;-1.8690479;85.0;NaN;;0.0;3.216;;12 / 20;16976;2018-03-13 16:46:25:989
1.004974;1.326981;9.633667;1.536565;1.520095;9.565494;0.341354;0.125759;-0.178448;-45.1461;25.5582;-10.0226;2147.4836;3.476;10.405;-40.2695;329.7025;-8.9172;-9.1258;5.0;1006.06;40.08777;50.747936;-1.8690479;85.0;NaN;;0.0;3.216;;12 / 20;17017;2018-03-13 16:46:26:030
1.692108;1.54007;9.70549;1.426333;1.232195;9.623807;0.132652;-0.161887;-0.332659;-30.559;0.3506;-5.0174;2147.4836;3.476;10.5545;-40.419;329.7025;-8.9172;-9.1258;5.0;1006.06;45.1229;50.747936;-1.8690479;85.0;NaN;;0.0;3.216;;12 / 20;17056;2018-03-13 16:46:26:069
0.801468;1.202484;10.25856;1.353556;1.072535;9.65339;-0.168792;0.335659;0.441906;-23.8447;19.0275;-43.2866;2147.4836;3.476;12.8052;-40.2695;330.8408;-7.2182;-8.4304;5.0;1006.1501;45.1229;50.747936;-1.8690479;85.0;NaN;;0.0;3.216;;12 / 20;17096;2018-03-13 16:46:26:109
0.19812;0.86969;9.652817;1.191419;1.071217;9.674885;-1.089587;-0.233002;0.042597;13.7531;19.2102;-55.4939;2147.4836;4.5258;12.6541;-39.8193;329.2171;-6.1241;-7.501;5.0;1006.09;45.1229;50.747936;-1.8690479;85.0;NaN;;0.0;3.216;;12 / 20;17137;2018-03-13 16:46:26:150
0.806259;1.236008;10.701477;1.330028;1.482135;9.602327;-0.532467;-0.305578;0.94888;47.3834;-35.9655;20.8005;2147.4836;4.3762;12.6541;-39.6698;333.7743;-8.0007;-7.267;5.0;1006.09;45.1229;50.747936;-1.8690479;85.0;NaN;;0.0;3.216;;12 / 20;17177;2018-03-13 16:46:26:190
1.763931;1.475418;9.482834;1.186198;1.412195;9.631668;0.842681;0.21778;-0.196533;-43.8645;60.8366;13.3535;2147.4836;4.0756;12.0544;-39.8193;331.8486;-9.0921;-8.1652;5.0;1005.8267;45.1229;50.747936;-1.8690479;85.0;NaN;;0.0;3.216;;12 / 20;17217;2018-03-13 16:46:26:230
0.011383;0.80983;8.503601;0.774237;1.070388;9.717264;-0.576318;-0.267647;-1.290391;-59.978;46.4322;19.1525;2147.4836;4.3762;12.0544;-40.1199;334.8229;-7.3015;-5.6947;5.0;1005.6167;45.1229;50.747936;-1.8690479;85.0;NaN;;0.0;3.216;;12 / 20;17256;2018-03-13 16:46:26:269
0.933151;0.383667;9.621704;0.746108;0.687171;9.754051;-0.055072;-0.29364;-0.334312;-34.2213;-28.8857;29.4671;2147.4836;5.1254;12.9547;-38.7695;334.3518;-4.583;-3.9446;5.0;1005.6167;45.1229;50.747936;-1.8690479;85.0;NaN;;0.0;3.216;;12 / 20;17297;2018-03-13 16:46:26:310
0.370514;0.070023;11.115677;0.989147;0.624419;9.736636;-0.418087;-0.726009;0.969112;2.1559;-47.5014;28.4293;2147.4836;5.1254;14.9048;-38.9191;334.2666;-3.7182;-5.0522;5.0;1005.54;45.1229;50.747936;-1.8690479;85.0;NaN;;0.0;3.216;;12 / 20;17337;2018-03-13 16:46:26:350
1.155808;0.299866;11.58255;0.774074;0.762865;9.746243;0.351486;-0.544587;1.698394;20.7104;80.6115;19.2128;2147.4836;5.1254;14.7552;-38.9191;332.274;-3.6811;-6.1628;5.0;1005.5134;39.62961;50.747936;-1.8690479;85.0;NaN;;0.0;3.216;;12 / 20;17377;2018-03-13 16:46:26:390
0.346573;0.04129;8.453323;0.214872;0.718311;9.777947;0.042799;-0.275465;-1.690717;-14.6291;72.7991;38.1949;2147.4836;6.4758;13.4048;-38.7695;332.8118;-4.5935;-3.3128;5.0;1005.5134;39.62961;50.747936;-1.8690479;85.0;NaN;;0.0;3.216;;12 / 17;17416;2018-03-13 16:46:26:429
0.459091;1.338959;9.499588;0.10023;0.54207;9.791143;0.170943;0.931753;-0.45478;-30.2539;-7.1567;29.3447;2147.4836;10.6766;13.855;-38.4689;325.097;-3.697;-0.729;5.0;1005.5;39.62961;50.747936;-1.8690479;85.0;NaN;;0.0;3.216;;12 / 17;17457;2018-03-13 16:46:26:470
0.427963;0.702087;9.588181;0.246919;0.365593;9.796721;0.345843;0.212637;-0.490979;-27.8733;-31.6318;10.0575;2147.4836;10.6766;15.3549;-37.2696;323.8996;-2.1365;-1.4438;5.0;1005.4966;39.62961;50.747936;-1.8690479;85.0;NaN;;0.0;3.216;;12 / 17;17497;2018-03-13 16:46:26:510
0.564438;0.374084;10.964844;0.424864;0.132319;9.796549;0.154957;0.241407;1.009373;-19.8773;-4.5934;-20.3983;2147.4836;10.6766;15.8051;-37.2696;323.8996;-2.1365;-1.4438;5.0;1005.4966;39.62961;50.747936;-1.8690479;85.0;NaN;;0.0;3.216;;12 / 17;17536;2018-03-13 16:46:26:549
-1.183334;0.635056;10.943298;0.300409;0.25725;9.798672;-1.454185;0.294209;0.872817;60.5052;27.6329;-86.5609;2147.4836;8.7265;16.5543;-36.969;324.8922;-0.7731;-2.4833;5.0;1005.53;39.62961;50.747936;-1.8690479;85.0;NaN;;0.0;3.216;;12 / 17;17577;2018-03-13 16:46:26:590
0.262772;-0.504578;8.589798;0.217933;0.640161;9.783306;0.025309;-1.20198;-1.170886;78.2668;-43.6564;-30.8353;2147.4836;8.2764;16.4047;-36.969;334.5778;-2.5526;-1.3218;5.0;1005.5733;39.62961;50.747936;-1.8690479;85.0;NaN;;0.0;3.216;;12 / 17;17617;2018-03-13 16:46:26:630
0.760757;0.824204;10.857101;0.754134;1.169071;9.707468;0.010898;-0.384991;0.920232;59.4683;-66.4222;15.0015;2147.4836;8.1253;12.9547;-38.4689;329.0963;-5.9116;-3.1141;5.0;1005.5733;39.62961;50.747936;-1.8690479;85.0;NaN;;0.0;3.216;;12 / 17;17657;2018-03-13 16:46:26:670
