ACCELEROMETER X (m/s²),ACCELEROMETER Y (m/s²),ACCELEROMETER Z (m/s²),GRAVITY X (m/s²),GRAVITY Y (m/s²),GRAVITY Z (m/s²),LINEAR ACCELERATION X (m/s²),LINEAR ACCELERATION Y (m/s²),LINEAR ACCELERATION Z (m/s²),GYROSCOPE X (°/s),GYROSCOPE Y (°/s),GYROSCOPE Z (°/s),LIGHT (lux),MAGNETIC FIELD X (μT),MAGNETIC FIELD Y (μT),MAGNETIC FIELD Z (μT),ORIENTATION Z (azimuth °),ORIENTATION X (pitch °),ORIENTATION Y (roll °),PROXIMITY (m),ATMOSPHERIC PRESSURE (hPa),SOUND LEVEL (dB),LOCATION Latitude : ,LOCATION Longitude : ,LOCATION Altitude ( m),LOCATION Altitude-google ( m),LOCATION Altitude-atmospheric pressure ( m),LOCATION Speed ( Kmh),LOCATION Accuracy ( m),LOCATION ORIENTATION (°),Satellites in range,Time since start in ms ,YYYY-MO-DD HH-MI-SS_SSS
-0.675751,0.268738,10.308838,-0.58239,0.346282,9.783215,-0.077929,-0.200218,0.051404,1.9951,2.8737,-3.0372,52,-2.2934,14.3951,-18.8904,11.4839,-1.9366,3.5572,5,982.3499,49.65712,50.742893,-1.894647,98.1,NaN,,,19.097,,0 / 26,6,2018-03-06 15:00:11:174
-1.552032,0.228043,10.282501,-0.609541,0.345345,9.781594,-0.940494,-0.116844,0.267058,-0.6898,2.5074,-5.479,52,-2.1439,14.3951,-19.0399,12.1474,-2.0321,3.4975,5,982.3499,49.65712,50.742893,-1.894647,98.1,NaN,,,19.097,,0 / 26,46,2018-03-06 15:00:11:214
-0.45549,0.295074,10.6129,-0.464187,0.363261,9.788919,0.006377,-0.081468,0.579638,5.7186,-21.7849,-3.5871,55,-2.1439,14.3951,-19.0399,12.235,-2.0181,3.5658,5,982.3467,49.65712,50.742893,-1.894647,98.1,NaN,,,19.097,,0 / 26,87,2018-03-06 15:00:11:255
-0.398025,0.639847,10.622467,-0.425138,0.400286,9.78925,0.085155,0.240766,0.663897,8.8921,-0.1172,-2.427,55,-2.7435,14.3951,-18.7408,14.8577,-2.1229,2.7149,5,982.3667,49.65712,50.742893,-1.894647,98.1,NaN,,,19.097,,0 / 26,126,2018-03-06 15:00:11:294
-0.249588,0.512955,9.885056,-0.404201,0.481929,9.786457,0.126094,-0.004591,-0.059168,12.0666,-7.6857,-0.779,55,-2.8946,14.2456,-18.8904,14.4424,-2.586,2.4852,5,982.3667,49.65712,50.742893,-1.894647,98.1,NaN,,,19.097,,0 / 26,167,2018-03-06 15:00:11:335
0.013779,0.206497,10.112503,-0.348148,0.542125,9.785462,0.376281,-0.307971,0.009108,5.7186,-6.5255,-6.7607,55,-2.8946,13.945,-19.0399,13.8957,-3.071,2.1441,5,982.4033,49.65712,50.742893,-1.894647,98.1,NaN,,,19.097,,0 / 26,206,2018-03-06 15:00:11:374
0.102356,0.345352,9.633667,-0.329307,0.572699,9.784373,0.578403,-0.175192,-0.512623,3.5827,8.184,-9.0189,55,-2.8946,13.7955,-19.0399,13.5201,-3.2935,1.88,5,982.4333,49.3831,50.742893,-1.894647,98.1,NaN,,,19.097,,0 / 26,246,2018-03-06 15:00:11:414
-0.59436,0.410004,9.616913,-0.372055,0.582795,9.782245,-0.045936,-0.135054,-0.443696,1.9347,-0.1783,-5.1127,55,-2.8946,13.7955,-19.0399,13.5201,-3.2935,1.88,5,982.4333,49.3831,50.742893,-1.894647,98.1,NaN,,,19.097,,0 / 26,286,2018-03-06 15:00:11:454
-0.168182,0.333389,9.80365,-0.298928,0.597708,9.783853,0.11733,-0.290173,-0.203735,2.3011,-13.4838,-4.4413,55,-2.8946,13.7955,-19.0399,13.3116,-3.4943,1.75,5,982.4367,49.3831,50.742893,-1.894647,98.1,NaN,,,19.097,,0 / 26,326,2018-03-06 15:00:11:494
-0.038895,0.486618,9.964066,-0.250372,0.607412,9.784618,0.143031,-0.158755,-0.085638,0.8358,0.3104,-4.624,55,-2.8946,13.7955,-19.0399,13.3116,-3.4943,1.75,5,982.45,49.3831,50.742893,-1.894647,98.1,NaN,,,19.097,,0 / 26,366,2018-03-06 15:00:11:534
-0.493805,0.45549,9.750992,-0.270537,0.604492,9.784263,-0.127275,-0.231114,-0.24468,-1.0561,1.1645,-2.3046,55,-3.1937,13.3453,-19.0399,13.8392,-3.5511,1.4658,5,982.45,49.3831,50.742893,-1.894647,98.1,NaN,,,19.097,,0 / 26,406,2018-03-06 15:00:11:574
-0.412399,0.678146,10.227432,-0.249738,0.59487,9.785405,-0.210806,0.072064,0.239469,-1.1785,-8.2347,-1.8779,58,-3.9444,13.3453,-19.0399,17.7331,-3.5034,1.5678,5,982.46,49.3831,50.742893,-1.894647,98.1,NaN,,,19.097,,0 / 26,446,2018-03-06 15:00:11:614
0.13588,0.694916,10.098145,-0.187362,0.596907,9.786674,0.350896,0.078386,0.087472,1.0797,1.5308,-0.4739,58,-3.9444,13.3453,-19.0399,17.4263,-3.4691,1.3062,5,982.4634,49.3831,50.742893,-1.894647,98.1,NaN,,,19.097,,0 / 26,487,2018-03-06 15:00:11:655
-0.5345,0.670975,10.239395,-0.261896,0.605182,9.784455,-0.192815,0.061112,0.244789,0.9582,10.8689,1.1129,58,-3.7933,13.1958,-18.8904,17.2624,-3.5067,1.1836,5,982.4634,49.3831,50.742893,-1.894647,98.1,NaN,,,19.097,,0 / 26,526,2018-03-06 15:00:11:694
-0.354935,0.733215,9.837173,-0.267286,0.619339,9.783423,-0.132883,0.104225,-0.124121,4.3145,-5.305,3.3712,58,-3.3432,13.1958,-18.8904,14.0024,-3.5698,1.5994,5,982.4733,46.3308,50.742893,-1.894647,98.1,NaN,,,19.097,,0 / 26,567,2018-03-06 15:00:11:735
0.087997,0.958267,10.078995,-0.244008,0.650646,9.781999,0.343628,0.269846,0.028974,3.094,1.7748,4.5313,55,-3.4943,13.4949,-18.8904,13.8247,-3.685,1.4856,5,982.48,46.3308,50.742893,-1.894647,98.1,NaN,,,19.097,,0 / 26,607,2018-03-06 15:00:11:775
0.157425,0.88884,9.80365,-0.258487,0.667664,9.78048,0.345267,0.141121,-0.239787,1.7512,0.6155,3.6151,55,-3.3432,13.0463,-18.8904,13.7696,-3.8636,1.4835,5,982.48,46.3308,50.742893,-1.894647,98.1,NaN,,,19.097,,0 / 26,646,2018-03-06 15:00:11:814
0.236435,0.831375,9.669586,-0.251267,0.678095,9.77995,0.483874,0.12583,-0.334927,0.1644,-0.9713,-0.1075,55,-3.1937,13.0463,-19.191,13.7252,-3.965,1.4717,5,982.48,46.3308,50.742893,-1.894647,98.1,NaN,,,19.097,,0 / 26,687,2018-03-06 15:00:11:855
0.061661,0.852936,9.918579,-0.206379,0.666242,9.781816,0.282298,0.171597,-0.087275,-2.4602,-8.5398,-4.4413,55,-2.7435,13.0463,-18.8904,13.5643,-3.9268,1.3348,5,982.46,46.3308,50.742893,-1.894647,98.1,NaN,,,19.097,,0 / 26,727,2018-03-06 15:00:11:895
0.157425,1.034882,9.973648,-0.205719,0.647624,9.78308,0.562367,0.196203,-0.21419,-2.8877,6.7799,-4.6852,58,-3.1937,13.0463,-18.5898,13.3049,-3.8236,1.1056,5,982.46,46.3308,50.742893,-1.894647,98.1,NaN,,,19.097,,0 / 26,766,2018-03-06 15:00:11:934
-0.235229,0.694916,9.770142,-0.226206,0.639619,9.783154,-0.058397,0.106257,-0.145406,-1.0561,-5.1223,-4.3801,58,-3.1937,13.1958,-18.5898,13.5815,-3.758,1.3098,5,982.47,46.3308,50.742893,-1.894647,98.1,NaN,,,19.097,,0 / 26,807,2018-03-06 15:00:11:975
0.123901,0.5345,10.074203,-0.190968,0.633238,9.784321,0.320899,-0.092058,0.064128,-2.2163,-0.4223,-6.3944,58,-3.1937,13.1958,-18.8904,13.4009,-3.7144,1.1569,5,982.4866,46.3308,50.742893,-1.894647,98.1,NaN,,,19.097,,0 / 26,846,2018-03-06 15:00:12:014
-0.189728,0.807434,9.952103,-0.192482,0.608556,9.785857,0.047769,0.215159,-0.067723,-3.7419,-0.2999,-6.8219,58,-3.4943,13.1958,-19.0399,13.3664,-3.6268,1.1099,5,982.4866,45.10349,50.742893,-1.894647,98.1,NaN,,,19.097,,0 / 26,887,2018-03-06 15:00:12:055
-0.295074,0.527313,10.122086,-0.191093,0.584127,9.787373,-0.066164,-0.129799,0.130348,-3.0092,-2.4978,-6.6995,58,-3.4943,12.8952,-19.0399,13.4478,-3.4756,1.1396,5,982.5067,45.10349,50.742893,-1.894647,98.1,NaN,,,19.097,,0 / 26,926,2018-03-06 15:00:12:094
-0.407608,0.575195,9.712677,-0.184343,0.572324,9.788199,-0.190909,-0.0023,-0.289669,-1.9715,0.1268,-4.2577,58,-3.4943,13.0463,-19.191,13.4082,-3.3457,1.0789,5,982.5,45.10349,50.742893,-1.894647,98.1,NaN,,,19.097,,0 / 26,966,2018-03-06 15:00:12:134
-0.208893,0.738007,9.911392,-0.17539,0.558639,9.789155,-0.051572,0.217478,-0.142817,-1.9715,-3.657,-0.9014,58,-3.3432,13.945,-19.191,12.5628,-3.2905,1.078,5,982.5,45.10349,50.742893,-1.894647,98.1,NaN,,,19.097,,0 / 26,1006,2018-03-06 15:00:12:174
-0.232834,0.589569,9.786896,-0.171628,0.551056,9.789651,-0.064874,0.013828,-0.201757,-0.8122,0.737,-2.0606,60,-3.4943,13.4949,-18.8904,13.3492,-3.2213,1.0044,5,982.5,45.10349,50.742893,-1.894647,98.1,NaN,,,19.097,,0 / 26,1047,2018-03-06 15:00:12:215
-0.333389,0.733215,9.983215,-0.166357,0.548725,9.789873,-0.176732,0.183821,-0.043107,-2.8265,-5.2438,-2.976,60,-4.0939,13.4949,-18.5898,17.1124,-3.2076,0.9735,5,982.4733,45.10349,50.742893,-1.894647,98.1,NaN,,,19.097,,0 / 26,1087,2018-03-06 15:00:12:255
-0.13945,0.539291,10.031113,-0.137736,0.526688,9.791528,0.010796,-0.014156,0.030251,-4.1082,-1.2764,-4.4413,60,-3.9444,13.4949,-18.5898,16.9612,-3.1427,0.8323,5,982.4733,45.10349,50.742893,-1.894647,98.1,NaN,,,19.097,,0 / 26,1127,2018-03-06 15:00:12:295
-0.386063,0.59436,10.378265,-0.141078,0.500874,9.792834,-0.197381,0.076953,0.341484,-3.2531,-3.7182,-4.0137,60,-3.9444,13.4949,-18.5898,16.9612,-3.1427,0.8323,5,982.4567,45.10349,50.742893,-1.894647,98.1,NaN,,,19.097,,0 / 26,1167,2018-03-06 15:00:12:335
-0.187347,0.520142,10.062225,-0.103379,0.498116,9.793446,-0.123347,-0.004427,-0.008194,0.5919,-7.7469,-2.4882,63,-3.9444,13.4949,-19.4901,17.0308,-2.9276,0.8254,5,982.46,44.72083,50.742893,-1.894647,98.1,NaN,,,19.097,,0 / 26,1206,2018-03-06 15:00:12:374
-0.254379,0.400421,9.913788,-0.058504,0.501242,9.793657,-0.200443,-0.098558,-0.100944,0.4695,-8.7234,-0.2299,66,-3.9444,13.4949,-19.4901,16.6315,-2.9199,0.5034,5,982.46,44.72083,50.742893,-1.894647,98.1,NaN,,,19.097,,0 / 26,1246,2018-03-06 15:00:12:414
-0.261566,0.381271,8.819641,-0.039374,0.495634,9.794038,-0.149467,-0.0944,-0.911306,-1.8499,6.1085,1.4793,68,-3.4943,13.4949,-19.0399,12.402,-2.9093,0.202,5,982.47,44.72083,50.742893,-1.894647,98.1,NaN,,,19.097,,0 / 26,1286,2018-03-06 15:00:12:454
-0.71167,0.335785,8.257004,-0.11246,0.460291,9.795197,-0.584906,-0.144857,-1.777926,-6.9154,7.7565,5.3243,68,-3.7933,13.4949,-18.4402,16.6916,-2.7991,0.4987,5,982.4534,44.72083,50.742893,-1.894647,98.1,NaN,,,19.097,,0 / 26,1326,2018-03-06 15:00:12:494
-0.728424,0.194519,7.263413,-0.12509,0.397057,9.797811,-0.672821,-0.122668,-2.321853,-12.1033,-2.8029,8.9254,68,-3.7933,13.4949,-18.4402,17.1377,-2.3205,0.7315,5,982.4534,44.72083,50.742893,-1.894647,98.1,NaN,,,19.097,,0 / 26,1366,2018-03-06 15:00:12:534
-0.544083,-0.231644,5.755066,-0.08507,0.30454,9.801551,-0.479186,-0.355548,-3.676638,-22.2964,-7.5633,17.1653,71,-4.0939,13.4949,-18.7408,17.1377,-2.3205,0.7315,5,982.3766,44.72083,50.742893,-1.894647,98.1,NaN,,,19.097,,0 / 26,1406,2018-03-06 15:00:12:574
-0.900818,-1.021728,5.170883,-0.046964,0.114141,9.805873,-0.781478,-1.12761,-5.00111,-38.959,-6.6479,23.8185,81,-4.0939,13.945,-18.5898,17.0333,-1.4499,0.3879,5,982.25,44.72083,50.742893,-1.894647,98.1,NaN,,,19.097,,0 / 26,1446,2018-03-06 15:00:12:614
-0.45549,-1.151016,5.779007,0.041789,-0.294045,9.802152,-0.619521,-0.64516,-4.089284,-65.3259,-4.3897,26.992,81,-4.0939,14.9963,-17.0898,16.1098,-0.0004,0.1386,5,982.25,44.72083,50.742893,-1.894647,98.1,NaN,,,19.097,,0 / 26,1487,2018-03-06 15:00:12:655
-0.45549,-3.04483,4.976944,-0.149678,-0.883925,9.765585,-0.361858,-2.168022,-4.771443,-84.064,45.6593,30.0441,100,-4.0939,14.8453,-17.3904,15.3672,2.3916,-0.257,5,982.0234,43.79845,50.742893,-1.894647,98.1,NaN,,,19.097,,0 / 26,1527,2018-03-06 15:00:12:695
-0.558441,-3.530853,6.633728,-0.390799,-1.668999,9.655678,-0.533778,-1.740473,-3.04132,-106.7083,8.3055,31.2646,113,-2.8946,15.7455,-17.3904,15.0332,6.6202,1.6158,5,981.8167,43.79845,50.742893,-1.894647,98.1,NaN,,,19.097,,0 / 26,1566,2018-03-06 15:00:12:734
-0.706879,-4.651336,6.79654,-0.617636,-2.240049,9.527387,0.368767,-2.205025,-3.17265,-120.6852,72.1487,32.2411,116,-2.8946,19.046,-15.4404,14.8668,9.7989,2.3177,5,981.8167,43.79845,50.742893,-1.894647,98.1,NaN,,,19.097,,0 / 26,1606,2018-03-06 15:00:12:774
-1.015732,-4.876388,7.919419,-1.110108,-3.079841,9.24406,0.055436,-1.866362,-1.232513,-134.7232,54.0208,22.4756,116,-2.2934,21.5958,-13.6398,14.3907,15.0461,4.9489,5,981.6833,43.79845,50.742893,-1.894647,98.1,NaN,,,19.097,,0 / 26,1646,2018-03-06 15:00:12:814
-1.954254,-7.067093,8.199539,-1.381998,-4.075581,8.81193,-0.633844,-2.959145,-0.634562,-143.8173,12.6392,11.4284,103,-1.5442,22.0459,-11.6898,12.9534,20.3181,7.7656,5,981.6733,43.79845,50.742893,-1.894647,98.1,NaN,,,19.097,,0 / 26,1686,2018-03-06 15:00:12:854
-0.893631,-7.878723,9.013565,-1.368383,-5.111151,8.256757,0.309494,-3.118182,0.72029,-153.888,7.6341,-2.6106,95,-1.0941,22.6456,-9.2896,9.5139,26.8102,9.0234,5,981.76,43.79845,50.742893,-1.894647,98.1,NaN,,,19.097,,0 / 26,1727,2018-03-06 15:00:12:895
-0.946304,-8.802887,10.268127,-1.438183,-5.776329,7.793333,0.320363,-3.72463,2.315983,-157.1228,18.621,2.4558,97,-1.0941,24.1455,-5.0903,6.496,36.0876,10.4557,5,981.76,43.79845,50.742893,-1.894647,98.1,NaN,,,19.097,,0 / 26,1767,2018-03-06 15:00:12:935
-1.678924,-10.189133,9.655212,-1.516542,-6.374774,7.296078,0.416073,-2.694928,2.578373,-138.0804,7.6341,1.9068,97,-1.2436,25.4959,-3.4409,7.1363,40.5451,11.7421,5,981.94,43.79845,50.742893,-1.894647,98.1,NaN,,,19.097,,0 / 26,1806,2018-03-06 15:00:12:974
-1.338943,-9.937744,9.272141,-1.529934,-7.269565,6.401805,0.189083,-2.616739,2.860528,-130.3895,-4.3897,-2.4882,92,-1.6937,25.6454,-1.9409,7.7062,43.9606,12.689,5,982.15,48.32967,50.742893,-1.894647,98.1,NaN,,,19.097,,0 / 26,1846,2018-03-06 15:00:13:014
-1.865677,-10.155609,8.532333,-1.515205,-7.68332,5.902638,-0.307855,-2.383921,2.429565,-130.4507,-8.601,1.4793,92,-2.4445,25.6454,0.6104,5.573,51.5804,14.397,5,982.15,48.32967,50.742893,-1.894647,98.1,NaN,,,19.097,,0 / 26,1886,2018-03-06 15:00:13:054
-0.29747,-10.5746,8.268967,-1.420133,-8.265745,5.082429,0.663519,-2.188169,3.271649,-114.2768,-8.1123,-2.4882,92,-2.7435,25.6454,3.009,6.7958,55.7861,15.2516,5,982.2333,48.32967,50.742893,-1.894647,98.1,NaN,,,19.097,,0 / 26,1926,2018-03-06 15:00:13:094
-1.231216,-10.246597,7.780564,-1.443742,-8.574249,4.535221,0.602889,-1.590597,3.454722,-99.3837,44.0113,-1.9994,84,-2.7435,25.4959,5.1102,4.4886,60.9658,17.6584,5,982.23,48.32967,50.742893,-1.894647,98.1,NaN,,,19.097,,0 / 26,1967,2018-03-06 15:00:13:135
-1.391617,-10.35672,7.366364,-1.588674,-8.906842,3.783474,0.185553,-1.184125,3.483687,-90.1069,34.1846,3.6763,71,-2.2934,25.4959,5.7098,2.1468,64.0733,21.1343,5,982.23,48.32967,50.742893,-1.894647,98.1,NaN,,,19.097,,0 / 26,2006,2018-03-06 15:00:13:174
-1.480209,-10.51474,7.514801,-1.632214,-9.073449,3.34347,0.347492,-1.507788,4.004843,-74.8475,2.385,-1.9994,68,-2.2934,25.4959,6.459,2.1468,64.0733,21.1343,5,982.1501,48.32967,50.742893,-1.894647,98.1,NaN,,,19.097,,0 / 26,2047,2018-03-06 15:00:13:215
-1.786667,-9.530731,7.519593,-1.549643,-9.232144,2.921729,-0.136985,-0.053047,4.384143,-58.6736,-50.5325,-5.6005,68,-2.2934,23.996,8.2596,352.7742,70.2909,27.9408,5,982.0833,48.32967,50.742893,-1.894647,98.1,NaN,,,19.097,,0 / 26,2086,2018-03-06 15:00:13:254
-1.319794,-10.926544,6.650498,-1.404573,-9.321041,2.704768,0.116651,-1.265226,4.079824,-36.518,-65.8522,-0.3515,66,-2.2934,24.1455,9.0103,351.5262,71.8937,27.4426,5,982.0833,48.32967,50.742893,-1.894647,98.1,NaN,,,19.097,,0 / 26,2127,2018-03-06 15:00:13:295
-0.529709,-9.442139,6.013642,-1.327902,-9.359966,2.607315,0.801294,0.100564,3.348772,-20.1605,-18.7941,6.7283,63,-2.4445,23.6954,9.4604,351.5262,71.8937,27.4426,5,982.01,48.32967,50.742893,-1.894647,98.1,NaN,,,19.097,,0 / 26,2166,2018-03-06 15:00:13:334
-1.180939,-9.664795,5.503678,-1.373745,-9.380763,2.506892,0.208499,-0.056247,2.864376,-12.8359,41.3256,0.5027,60,-2.4445,23.2452,9.7595,350.3147,72.8054,27.2998,5,982.0234,47.26552,50.742893,-1.894647,98.1,NaN,,,19.097,,0 / 26,2206,2018-03-06 15:00:13:374
-1.815399,-9.631287,4.047989,-1.46144,-9.384177,2.443727,-0.469936,0.012082,1.635722,-2.948,26.0059,4.714,60,-2.1439,22.9462,9.7595,348.6782,73.1514,29.5428,5,982.0234,47.26552,50.742893,-1.894647,98.1,NaN,,,19.097,,0 / 26,2247,2018-03-06 15:00:13:415
-1.674133,-9.480438,3.119049,-1.53415,-9.369389,2.455876,-0.005701,0.118896,0.641001,4.8032,28.6916,4.1038,60,-1.8433,22.9462,9.7595,347.6255,73.0121,31.2941,5,982.0533,47.26552,50.742893,-1.894647,98.1,NaN,,,19.097,,0 / 26,2286,2018-03-06 15:00:13:454
-2.152984,-9.868301,2.721604,-1.59086,-9.357839,2.463818,-0.567222,-0.183746,0.282916,4.9859,14.7751,5.3855,60,-1.8433,23.8449,9.7595,347.2251,72.7147,32.4398,5,982.0267,47.26552,50.742893,-1.894647,98.1,NaN,,,19.097,,0 / 26,2326,2018-03-06 15:00:13:494
-1.477814,-9.250595,2.393601,-1.64783,-9.34464,2.476441,0.166703,0.326498,-0.043904,-0.0184,11.3576,6.6059,60,-2.1439,23.6954,10.2097,346.7244,72.3948,33.4148,5,982.0267,47.26552,50.742893,-1.894647,98.1,NaN,,,19.097,,0 / 26,2367,2018-03-06 15:00:13:535
-2.15538,-9.607346,2.479797,-1.716955,-9.341555,2.440862,-0.380316,0.011975,-0.053309,-5.7562,7.1462,4.5916,60,-1.8433,23.5458,9.9091,346.06,72.273,34.5797,5,981.9534,47.26552,50.742893,-1.894647,98.1,NaN,,,19.097,,0 / 26,2406,2018-03-06 15:00:13:574
-2.409164,-9.504395,2.992157,-1.738143,-9.348138,2.400325,-0.504324,0.066695,0.415448,-5.8777,-4.9387,1.2353,60,-1.6937,23.5458,9.9091,345.3228,72.3582,35.7673,5,981.9001,47.26552,50.742893,-1.894647,98.1,NaN,,,19.097,,0 / 26,2446,2018-03-06 15:00:13:614
-3.06517,-9.34877,3.461411,-1.758319,-9.351674,2.371687,-1.558291,0.283632,1.079021,-7.0378,-8.8449,6.362,60,-1.5442,23.5458,9.7595,345.0099,72.4839,36.2232,5,981.9001,47.26552,50.742893,-1.894647,98.1,NaN,,,19.097,,0 / 26,2486,2018-03-06 15:00:13:654
-4.288604,-9.808456,3.600281,-1.810295,-9.341142,2.374091,-2.076222,-0.241553,1.022854,-4.1082,-46.6263,13.6254,60,-1.5442,23.5458,9.7595,344.5719,72.3999,36.9963,5,981.9567,44.48615,50.742893,-1.894647,98.1,NaN,,,19.097,,0 / 26,2526,2018-03-06 15:00:13:694
-4.037216,-8.766968,4.115036,-1.807608,-9.318602,2.463049,-2.55547,0.907227,1.634762,5.1083,-65.8522,15.8224,60,-1.5442,22.9462,9.7595,344.4759,72.0357,36.878,5,982.0267,44.48615,50.742893,-1.894647,98.1,NaN,,,19.097,,0 / 26,2567,2018-03-06 15:00:13:735
-4.654922,-9.913803,4.316147,-1.860097,-9.274476,2.58738,-2.872463,-0.347185,1.67973,10.0523,-7.5633,13.9305,60,-0.7935,22.345,10.9604,340.8198,71.3248,35.5969,5,982.0267,44.48615,50.742893,-1.894647,98.1,NaN,,,19.097,,0 / 26,2606,2018-03-06 15:00:13:774
-7.111374,-9.504395,4.198838,-2.065675,-9.204591,2.679345,-4.813065,-0.150517,1.672669,16.583,-19.2207,44.0822,60,-0.7935,22.345,10.8093,340.6455,70.6915,36.2199,5,982.1133,44.48615,50.742893,-1.894647,98.1,NaN,,,19.097,,0 / 26,2647,2018-03-06 15:00:13:815
-6.800125,-10.225037,3.494934,-2.302314,-9.105238,2.822123,-4.329995,-0.781269,0.577592,25.9823,-67.1339,68.9235,60,-0.6439,22.6456,10.9604,340.0725,68.1985,39.2079,5,982.1333,44.48615,50.742893,-1.894647,98.1,NaN,,,19.097,,0 / 26,2687,2018-03-06 15:00:13:855
-7.266998,-10.406998,3.870819,-2.699598,-8.883249,3.157601,-4.550135,-1.17011,0.609031,32.7569,-75.2514,84.2432,60,1.7563,22.9462,10.9604,331.7606,64.9366,40.5289,5,982.1333,44.48615,50.742893,-1.894647,98.1,NaN,,,19.097,,0 / 26,2726,2018-03-06 15:00:13:894
-6.541549,-11.233002,4.112641,-3.20024,-8.570449,3.532174,-3.282404,-2.252675,0.477359,36.6028,-40.9497,101.0885,66,2.2064,22.7951,10.6598,331.7606,64.9366,40.5289,5,982.1199,44.48615,50.742893,-1.894647,98.1,NaN,,,19.097,,0 / 26,2767,2018-03-06 15:00:13:935
-6.244674,-10.969635,4.067154,-3.826677,-8.194907,3.790835,-2.265356,-2.401853,0.10247,37.3346,-12.2633,120.4981,79,3.4058,22.7951,9.9091,330.8201,59.9371,42.7968,5,982.06,44.48615,50.742893,-1.894647,98.1,NaN,,,19.097,,0 / 26,2806,2018-03-06 15:00:13:974
-7.020385,-11.46524,5.553955,-4.660405,-7.628727,4.031566,-2.152885,-3.497506,1.469512,35.1988,-15.4369,146.316,79,4.1565,22.1954,9.3094,332.4327,54.9252,46.6772,5,982.06,45.0336,50.742893,-1.894647,98.1,NaN,,,19.097,,0 / 26,2846,2018-03-06 15:00:14:014
-6.220733,-11.448486,5.348053,-5.117029,-7.249043,4.175855,-1.060279,-3.792275,1.277493,42.4621,4.7044,143.8742,97,4.9057,22.0459,9.3094,327.907,47.663,50.7831,5,982.0833,45.0336,50.742893,-1.894647,98.1,NaN,,,19.097,,0 / 26,2887,2018-03-06 15:00:14:055
-7.01799,-10.897812,5.288193,-5.951648,-6.428963,4.40644,-0.722174,-4.205167,0.777593,46.9786,-0.1172,139.0526,110,6.7062,22.0459,9.0103,325.2576,40.963,53.4848,5,982.19,45.0336,50.742893,-1.894647,98.1,NaN,,,19.097,,0 / 26,2926,2018-03-06 15:00:14:094
-5.995666,-9.746201,5.206787,-6.558102,-5.598359,4.671194,1.057858,-3.620017,0.327839,48.8705,-7.1357,139.3577,121,8.3557,22.0459,7.6599,325.9313,36.8568,54.2476,5,982.19,45.0336,50.742893,-1.894647,98.1,NaN,,,19.097,,0 / 26,2967,2018-03-06 15:00:14:135
-5.899902,-8.903442,5.328888,-6.911697,-5.030578,4.805425,1.467056,-3.698037,0.165393,48.5042,-2.3754,130.6299,121,11.3556,20.6955,6.6101,322.0897,30.8623,55.1907,5,982.2934,45.0336,50.742893,-1.894647,98.1,NaN,,,19.097,,0 / 26,3006,2018-03-06 15:00:14:174
-5.445007,-8.110962,4.787812,-7.228565,-4.467185,4.895148,2.142536,-3.553912,-0.292844,49.9694,14.5923,125.8075,137,12.4069,19.9463,5.4092,323.251,27.0988,55.8943,5,982.3499,45.0336,50.742893,-1.894647,98.1,NaN,,,19.097,,0 / 26,3046,2018-03-06 15:00:14:214
-6.524795,-6.145324,5.829285,-7.804465,-3.384769,4.878939,1.521297,-2.587659,0.754514,45.0867,17.3393,102.3702,150,14.3555,19.9463,4.9591,322.3117,21.7903,57.5765,5,982.3499,45.0336,50.742893,-1.894647,98.1,NaN,,,19.097,,0 / 26,3087,2018-03-06 15:00:14:255
-7.346008,-5.992096,5.525223,-8.082629,-2.623307,4.894871,1.285736,-3.045408,0.299684,50.3349,18.2546,118.9716,153,16.3055,19.7952,4.66,321.7046,16.7383,58.5572,5,982.3533,45.0336,50.742893,-1.894647,98.1,NaN,,,19.097,,0 / 26,3127,2018-03-06 15:00:14:295
-7.228683,-5.302566,4.660919,-8.339261,-1.776506,4.844702,1.559364,-3.385083,-0.746608,50.3349,15.6913,102.7977,153,18.1061,17.2455,4.0604,317.6962,12.0605,59.582,5,982.3533,48.40926,50.742893,-1.894647,98.1,NaN,,,19.097,,0 / 26,3167,2018-03-06 15:00:14:335
-6.18721,-4.725555,3.897156,-8.448904,-1.212412,4.828714,2.661893,-3.473121,-1.163538,46.4287,13.3719,110.1215,150,18.1061,16.0461,4.0604,317.6962,12.0605,59.582,5,982.3533,48.40926,50.742893,-1.894647,98.1,NaN,,,19.097,,0 / 26,3207,2018-03-06 15:00:14:375
-4.513656,-3.133423,2.400787,-8.598236,-0.372891,4.701242,4.569603,-2.667303,-2.522169,28.1793,24.2967,107.8632,142,19.9066,14.8453,3.7598,317.5095,7.1017,60.2512,5,982.3367,48.40926,50.742893,-1.894647,98.1,NaN,,,19.097,,0 / 26,3247,2018-03-06 15:00:14:415
-4.130585,-1.24678,3.772659,-8.645424,0.293357,4.619629,4.936483,-1.636,-1.052046,16.7658,7.2074,84.9147,142,20.8069,12.2955,3.1601,317.5308,0.741,61.6512,5,982.3033,48.40926,50.742893,-1.894647,98.1,NaN,,,19.097,,0 / 26,3286,2018-03-06 15:00:14:454
-4.432266,-0.753586,3.296219,-8.631542,0.602412,4.615621,4.519266,-1.483955,-1.349388,14.386,-0.2999,50.3681,129,20.8069,11.9949,3.6102,314.9166,-1.7142,61.8825,5,982.3033,48.40926,50.742893,-1.894647,98.1,NaN,,,19.097,,0 / 26,3326,2018-03-06 15:00:14:494
-4.920669,0.141846,3.461411,-8.610371,0.857746,4.614779,4.128141,-0.830009,-1.294165,10.6625,5.681,22.5971,124,21.4066,9.7458,3.1601,314.2305,-4.2205,61.8212,5,982.28,48.40926,50.742893,-1.894647,98.1,NaN,,,19.097,,0 / 26,3367,2018-03-06 15:00:14:535
-6.376358,0.309448,3.89238,-8.648743,0.954195,4.523177,2.518242,-0.684491,-0.771038,5.1695,13.1883,3.9814,118,21.5561,10.1959,3.1601,311.8067,-5.3028,61.9451,5,982.26,48.40926,50.742893,-1.894647,98.1,NaN,,,19.097,,0 / 26,3406,2018-03-06 15:00:14:574
-7.398681,0.206497,3.930679,-8.65055,1.001197,4.509543,1.338264,-0.791696,-0.600141,1.0797,-3.657,4.2262,118,21.2555,10.1959,3.9093,311.2557,-5.6805,62.5209,5,982.26,48.40926,50.742893,-1.894647,98.1,NaN,,,19.097,,0 / 26,3446,2018-03-06 15:00:14:614
-8.262985,0.5345,4.536408,-8.642056,1.013244,4.523117,0.708165,-0.405816,-0.216495,-2.2766,0.8594,6.5447,113,21.2555,10.1959,3.9093,311.3214,-5.9305,62.3731,5,982.2433,46.94184,50.742893,-1.894647,98.1,NaN,,,19.097,,0 / 26,3486,2018-03-06 15:00:14:654
-7.848785,0.635056,4.687241,-8.647833,1.03198,4.507815,1.031274,-0.453879,0.019769,-3.0704,3.4839,-0.8402,113,21.4066,10.0449,3.9093,311.4598,-6.0406,62.4685,5,982.21,46.94184,50.742893,-1.894647,98.1,NaN,,,19.097,,0 / 26,3526,2018-03-06 15:00:14:694
-8.760971,0.972641,5.024826,-8.681423,1.008748,4.448113,0.426057,0.01208,0.571083,-2.2766,25.3956,-5.2342,113,21.4066,9.4452,4.0604,309.1311,-5.9041,62.8707,5,982.21,46.94184,50.742893,-1.894647,98.1,NaN,,,19.097,,0 / 26,3566,2018-03-06 15:00:14:734
-9.555847,0.412399,4.761475,-8.788344,0.970659,4.241842,-0.526811,-0.524983,0.470082,2.4226,33.3908,-2.7933,113,21.4066,9.4452,4.0604,309.9295,-5.6804,64.2349,5,982.1867,46.94184,50.742893,-1.894647,98.1,NaN,,,19.097,,0 / 26,3606,2018-03-06 15:00:14:774
-9.845551,0.658997,4.354447,-8.874576,0.95975,4.060934,-0.672441,-0.308411,0.190562,2.6062,27.8978,-0.3515,108,21.4066,10.9451,4.2099,315.636,-5.6164,65.4116,5,982.1667,46.94184,50.742893,-1.894647,98.1,NaN,,,19.097,,0 / 26,3647,2018-03-06 15:00:14:815
-9.80246,0.579987,4.395157,-8.936746,0.966502,3.920566,-0.604716,-0.408202,0.363448,2.2399,12.2729,1.3569,97,21.5561,10.495,4.8096,315.636,-5.6164,65.4116,5,982.1667,46.94184,50.742893,-1.894647,98.1,NaN,,,19.097,,0 / 26,3686,2018-03-06 15:00:14:854
-9.797668,0.572815,4.160523,-8.950929,0.981037,3.884435,-0.596661,-0.438125,0.186419,2.7277,3.7279,3.4936,92,21.4066,10.495,5.4092,311.1834,-5.656,66.3129,5,982.14,46.94184,50.742893,-1.894647,98.1,NaN,,,19.097,,0 / 26,3726,2018-03-06 15:00:14:894
-9.237427,0.668579,4.028839,-8.959042,1.013602,3.857277,-0.05901,-0.46493,0.055758,0.8358,2.0799,7.2162,92,21.5561,10.495,5.4092,311.562,-5.8369,66.6525,5,982.1133,46.94184,50.742893,-1.894647,98.1,NaN,,,19.097,,0 / 26,3766,2018-03-06 15:00:14:934
-9.381073,0.953491,4.44783,-8.956402,1.052603,3.852956,-0.226061,-0.114638,0.448414,0.7134,1.1645,4.6528,89,21.4066,10.495,5.2597,311.7507,-6.0233,66.727,5,982.1133,55.07222,50.742893,-1.894647,98.1,NaN,,,19.097,,0 / 26,3806,2018-03-06 15:00:14:974
-9.165604,0.738007,3.921097,-8.974879,1.07398,3.803748,0.112736,-0.401454,0.031025,1.6296,14.4096,1.7844,89,21.4066,10.495,5.1102,312.5393,-6.2226,66.7612,5,982.11,55.07222,50.742893,-1.894647,98.1,NaN,,,19.097,,0 / 26,3846,2018-03-06 15:00:15:014
-9.926956,0.752365,3.719986,-8.975756,1.09873,3.794602,-0.690626,-0.367586,-0.169441,0.8358,-12.6296,5.9345,87,21.4066,10.495,5.1102,312.9467,-6.3137,67.231,5,982.11,55.07222,50.742893,-1.894647,98.1,NaN,,,19.097,,0 / 26,3886,2018-03-06 15:00:15:054
-10.104126,0.90799,3.710419,-8.874002,1.129284,4.018359,-0.585554,-0.218543,-0.684684,-4.3521,-91.7313,7.9488,87,21.4066,10.0449,5.1102,312.5969,-6.5298,66.555,5,982.11,55.07222,50.742893,-1.894647,98.1,NaN,,,19.097,,0 / 26,3927,2018-03-06 15:00:15:095
-9.993988,1.152206,4.572327,-8.48009,1.182191,4.781305,-1.335159,-0.081423,-0.445164,-5.5122,-183.5885,17.1041,95,21.4066,10.0449,4.9591,309.8777,-6.8125,62.281,5,982.0999,55.07222,50.742893,-1.894647,98.1,NaN,,,19.097,,0 / 26,3966,2018-03-06 15:00:15:134
-8.164825,1.080383,5.877167,-7.713516,1.247679,5.925821,-0.753392,-0.107723,-0.662277,-12.592,-286.4938,19.3011,132,22.4564,9.8953,1.8097,308.6419,-7.3094,52.4671,5,982.0667,55.07222,50.742893,-1.894647,98.1,NaN,,,19.097,,0 / 26,4006,2018-03-06 15:00:15:174
-6.199173,0.759552,7.179611,-6.139915,1.271909,7.540164,-0.106762,-0.491597,-0.692731,-18.8177,-310.6033,18.7521,132,22.4564,8.3954,-6.8909,309.8768,-7.4622,43.7868,5,982.0667,55.07222,50.742893,-1.894647,98.1,NaN,,,19.097,,0 / 26,4047,2018-03-06 15:00:15:215
-4.348465,0.678146,8.675995,-4.381771,1.21264,8.689072,0.045153,-0.611522,-0.476134,-17.6575,-310.9084,10.207,190,21.5561,8.3954,-9.8907,304.1427,-7.1031,26.7611,5,982.06,55.07222,50.742893,-1.894647,98.1,NaN,,,19.097,,0 / 26,4086,2018-03-06 15:00:15:254
-1.485001,0.644638,8.845978,-2.311307,1.143257,9.461566,0.762423,-0.529733,-0.923517,-8.5022,-266.0473,5.4467,208,19.1559,8.5449,-10.791,304.1427,-7.1031,26.7611,5,982.24,52.39095,50.742893,-1.894647,98.1,NaN,,,19.097,,0 / 26,4126,2018-03-06 15:00:15:294
-0.47464,0.565628,9.542694,-0.743692,1.083839,9.718159,-0.001643,-0.523612,-0.710141,-9.2349,-222.6515,-3.2208,140,16.4566,8.5449,-14.9902,310.2314,-6.6947,13.7276,5,982.5601,52.39095,50.742893,-1.894647,98.1,NaN,,,19.097,,0 / 26,4167,2018-03-06 15:00:15:335
0.518951,0.527313,9.861115,0.22596,1.03551,9.749207,0.349657,-0.536877,-0.278829,-9.9675,-126.8872,-5.6617,140,15.4068,8.5449,-19.6396,305.0878,-6.2101,1.3669,5,982.5601,52.39095,50.742893,-1.894647,98.1,NaN,,,19.097,,0 / 26,4207,2018-03-06 15:00:15:375
1.153412,0.491409,9.976044,1.093135,0.952591,9.698866,0.092134,-0.475401,0.05445,-8.5634,-48.5182,-5.479,73,12.706,8.5449,-19.191,305.165,-5.8536,-4.0552,5,982.8133,52.39095,50.742893,-1.894647,98.1,NaN,,,19.097,,0 / 26,4246,2018-03-06 15:00:15:414
0.399246,0.429153,9.949707,1.329057,0.889129,9.675404,-0.976655,-0.481714,-0.017982,-9.8451,-37.9588,-9.6291,50,11.5067,8.5449,-19.191,308.7471,-5.4401,-7.0012,5,982.8867,52.39095,50.742893,-1.894647,98.1,NaN,,,19.097,,0 / 26,4286,2018-03-06 15:00:15:454
0.815826,0.544083,10.146027,1.864886,0.82109,9.592622,-1.328142,-0.265423,0.227379,-8.8073,-98.5672,-5.0515,42,11.6562,8.8455,-19.6396,305.5025,-5.0739,-8.5005,5,982.8867,52.39095,50.742893,-1.894647,98.1,NaN,,,19.097,,0 / 26,4326,2018-03-06 15:00:15:494
2.381638,0.129883,10.507553,2.367813,0.790099,9.483649,-0.203112,-0.711415,0.731574,-3.9858,-68.4155,-15.3057,42,11.3556,8.9951,-20.0897,303.7485,-4.8029,-11.0016,5,982.92,52.39095,50.742893,-1.894647,98.1,NaN,,,19.097,,0 / 26,4366,2018-03-06 15:00:15:534
2.831741,0.469864,10.292068,2.509186,0.798044,9.44656,0.259262,-0.358496,0.579206,3.7043,33.2693,-0.7178,34,8.3557,8.9951,-20.5399,306.6068,-4.6226,-14.6933,5,982.92,52.39095,50.742893,-1.894647,98.1,NaN,,,19.097,,0 / 26,4407,2018-03-06 15:00:15:575
1.249176,0.307053,9.743805,2.188155,0.823983,9.523834,-1.017725,-0.546869,-0.068304,3.3379,43.8889,-1.2677,31,8.6563,9.7458,-20.5399,306.8247,-4.7143,-14.4768,5,982.97,50.27877,50.742893,-1.894647,98.1,NaN,,,19.097,,0 / 26,4446,2018-03-06 15:00:15:614
1.26355,0.606323,9.753372,2.005454,0.830949,9.563371,-0.830078,-0.270095,-0.120753,0.5307,19.1088,-2.183,34,10.4568,9.7458,-20.3903,309.1224,-4.8458,-12.3866,5,982.9534,50.27877,50.742893,-1.894647,98.1,NaN,,,19.097,,0 / 26,4486,2018-03-06 15:00:15:654
1.321014,0.575195,9.662399,1.989506,0.824516,9.567259,-0.760075,-0.273882,-0.224571,-1.6663,-9.3948,0.1976,34,10.9055,9.7458,-20.3903,307.6432,-4.8416,-11.6716,5,982.9534,50.27877,50.742893,-1.894647,98.1,NaN,,,19.097,,0 / 26,4526,2018-03-06 15:00:15:694
1.953079,0.431549,10.083786,1.977043,0.814765,9.570677,-0.052871,-0.417049,0.206686,1.0797,18.1322,0.0752,36,10.9055,9.7458,-20.3903,307.4794,-4.7691,-11.8553,5,982.9001,50.27877,50.742893,-1.894647,98.1,NaN,,,19.097,,0 / 26,4566,2018-03-06 15:00:15:734
1.036102,0.469864,9.72226,1.826406,0.826533,9.599556,-0.864838,-0.39077,-0.181211,2.6062,15.325,1.7844,36,10.9055,9.7458,-19.7906,308.073,-4.8127,-10.9541,5,982.8566,50.27877,50.742893,-1.894647,98.1,NaN,,,19.097,,0 / 26,4607,2018-03-06 15:00:15:775
1.641831,0.424362,9.7845,1.888926,0.830936,9.587069,-0.288148,-0.411806,-0.074298,0.4695,-14.8266,-1.9994,36,10.7559,9.7458,-19.7906,308.115,-4.856,-10.9362,5,982.8566,50.27877,50.742893,-1.894647,98.1,NaN,,,19.097,,0 / 26,4646,2018-03-06 15:00:15:814
1.859695,0.460281,9.796478,1.888505,0.82906,9.587315,-0.100941,-0.382323,0.081183,-0.8122,11.3576,-3.5871,36,10.7559,9.7458,-19.9402,307.9791,-4.8496,-11.1434,5,982.83,50.27877,50.742893,-1.894647,98.1,NaN,,,19.097,,0 / 26,4687,2018-03-06 15:00:15:855
0.940323,0.524918,9.810837,1.735486,0.820169,9.616954,-0.556962,-0.303457,-0.055731,-1.8499,17.2169,-4.3801,36,10.7559,9.4452,-19.7906,307.9791,-4.8496,-11.1434,5,982.79,50.27877,50.742893,-1.894647,98.1,NaN,,,19.097,,0 / 26,4726,2018-03-06 15:00:15:894
1.423966,0.426758,9.928162,1.676414,0.812805,9.628052,-0.359733,-0.413226,0.043568,0.1032,-2.5581,-3.7698,39,10.7559,9.7458,-19.9402,306.1813,-4.7754,-9.9447,5,982.7567,50.27877,50.742893,-1.894647,98.1,NaN,,,19.097,,0 / 26,4766,2018-03-06 15:00:15:934
2.130249,0.371689,10.023926,1.651664,0.819218,9.631784,0.429444,-0.456938,0.039484,1.2021,18.621,-4.6852,39,11.5067,9.7458,-19.9402,308.7287,-4.7543,-9.8772,5,982.7567,45.60716,50.742893,-1.894647,98.1,NaN,,,19.097,,0 / 26,4806,2018-03-06 15:00:15:974
1.854919,0.388458,9.940125,1.4928,0.831452,9.656637,0.323463,-0.467193,0.006035,1.3245,17.0342,-7.3709,39,11.5067,9.7458,-20.0897,307.1302,-4.8108,-9.4723,5,982.7366,45.60716,50.742893,-1.894647,98.1,NaN,,,19.097,,0 / 26,4846,2018-03-06 15:00:16:014
2.276291,0.450699,9.710281,1.399632,0.85652,9.668391,0.84444,-0.448624,-0.25409,2.2399,12.0902,-14.0844,42,11.3556,9.1461,-20.0897,305.1149,-4.8636,-8.7877,5,982.7034,45.60716,50.742893,-1.894647,98.1,NaN,,,19.097,,0 / 26,4887,2018-03-06 15:00:16:055
2.716828,0.122696,9.798874,1.343374,0.869345,9.675225,1.114419,-0.728472,-0.139822,0.9582,17.1557,-19.8222,44,11.5067,9.1461,-19.9402,305.5751,-5.0106,-8.2371,5,982.7034,45.60716,50.742893,-1.894647,98.1,NaN,,,19.097,,0 / 26,4926,2018-03-06 15:00:16:094
3.420715,-0.262772,9.7845,1.208124,0.891854,9.690997,2.179049,-1.025858,-0.436612,1.3848,15.874,-26.902,44,11.3556,9.7458,-19.4901,308.0087,-5.1242,-7.6595,5,982.6634,45.60716,50.742893,-1.894647,98.1,NaN,,,19.097,,0 / 26,4967,2018-03-06 15:00:16:135
3.648178,-0.210098,9.674377,1.264818,0.927849,9.680378,2.198528,-1.247242,-0.292927,2.9716,-28.376,-37.5829,50,11.3556,9.7458,-19.4901,311.249,-5.2811,-6.8786,5,982.6367,45.60716,50.742893,-1.894647,98.1,NaN,,,19.097,,0 / 26,5008,2018-03-06 15:00:16:176
5.089478,0.096359,9.585785,1.47568,0.957493,9.647589,3.218195,-0.789339,-0.331072,-1.4836,-44.1232,-54.673,52,11.3556,9.7458,-19.4901,310.6095,-5.5152,-8.0291,5,982.6367,45.60716,50.742893,-1.894647,98.1,NaN,,,19.097,,0 / 26,5046,2018-03-06 15:00:16:214
4.682465,-0.856537,9.662399,1.696633,0.987181,9.608189,3.098433,-1.535836,-0.244856,-8.0756,-22.4563,-73.7162,52,10.0067,9.8953,-19.6396,311.4212,-5.7774,-10.0142,5,982.5999,45.60716,50.742893,-1.894647,98.1,NaN,,,19.097,,0 / 26,5086,2018-03-06 15:00:16:254
4.328125,-0.992996,9.595367,1.704192,0.99542,9.606002,2.322024,-2.066318,-0.220459,-13.4462,5.0707,-94.1626,52,8.3557,10.1959,-19.6396,311.4212,-5.7774,-10.0142,5,982.55,46.37929,50.742893,-1.894647,98.1,NaN,,,19.097,,0 / 26,5126,2018-03-06 15:00:16:294
2.963425,-1.409592,9.379883,1.535699,1.001963,9.633695,1.461656,-2.453359,-0.512367,-13.2023,16.2403,-108.018,58,8.2062,11.2457,-19.4901,319.4529,-5.8642,-9.0573,5,982.55,46.37929,50.742893,-1.894647,98.1,NaN,,,19.097,,0 / 26,5166,2018-03-06 15:00:16:334
2.012924,-1.426346,9.425369,1.361549,0.9996,9.660091,1.121201,-2.40082,-0.479087,-15.8268,12.4565,-119.3091,71,8.0566,11.3953,-19.4901,320.324,-5.8504,-8.0228,5,982.5234,46.37929,50.742893,-1.894647,98.1,NaN,,,19.097,,0 / 26,5207,2018-03-06 15:00:16:375
1.529297,-1.926742,9.552261,1.305035,0.976391,9.67026,0.283401,-2.666495,-0.57883,-19.9157,-16.7186,-125.8398,71,7.1564,11.5463,-19.4901,320.324,-5.8504,-8.0228,5,982.54,46.37929,50.742893,-1.894647,98.1,NaN,,,19.097,,0 / 26,5247,2018-03-06 15:00:16:415
1.711258,-1.771118,9.691132,1.361409,0.927513,9.667298,0.292988,-2.723495,-0.229907,-23.029,-17.1461,-130.2348,89,7.0068,13.945,-19.4901,330.3093,-5.6086,-7.781,5,982.54,46.37929,50.742893,-1.894647,98.1,NaN,,,19.097,,0 / 26,5286,2018-03-06 15:00:16:454
1.093552,-2.101517,10.026321,1.376805,0.848379,9.672386,-0.263463,-2.990337,0.058119,-24.7994,-11.8358,-134.9339,110,5.806,13.4949,-19.4901,331.0714,-5.2532,-8.0902,5,982.5466,46.37929,50.742893,-1.894647,98.1,NaN,,,19.097,,0 / 26,5326,2018-03-06 15:00:16:494
0.329803,-1.993774,10.548248,1.403071,0.772926,9.674935,-0.90256,-2.717657,0.462373,-27.5454,-20.9911,-136.5819,134,3.2562,13.0463,-19.0399,335.3666,-4.8053,-8.1117,5,982.57,46.37929,50.742893,-1.894647,98.1,NaN,,,19.097,,0 / 26,5366,2018-03-06 15:00:16:534
0.487824,-2.479797,10.268127,1.458158,0.719453,9.670912,-1.152833,-3.423131,0.523892,-23.1514,-9.6388,-130.4175,155,2.5055,13.0463,-18.8904,338.1626,-4.3558,-8.4302,5,982.57,46.37929,50.742893,-1.894647,98.1,NaN,,,19.097,,0 / 26,5407,2018-03-06 15:00:16:575
-0.876877,-1.773514,10.541077,1.404859,0.663988,9.682762,-2.104826,-2.407282,0.540895,-20.0381,-9.5776,-120.3468,155,1.1566,13.1958,-18.5898,345.159,-3.9809,-8.4448,5,982.6066,46.8293,50.742893,-1.894647,98.1,NaN,,,19.097,,0 / 26,5447,2018-03-06 15:00:16:615
-0.658997,-1.840546,10.098145,1.45143,0.618683,9.678893,-2.160725,-2.48394,0.162526,-18.085,-23.6156,-109.3608,169,0.5554,14.2456,-18.1396,346.604,-3.6982,-8.3347,5,982.6501,46.8293,50.742893,-1.894647,98.1,NaN,,,19.097,,0 / 26,5486,2018-03-06 15:00:16:654
-0.670975,-1.206085,10.481216,1.454845,0.580534,9.680744,-2.149697,-1.7935,0.520911,-18.6341,-4.9387,-100.2055,179,-0.1938,14.0961,-18.1396,346.604,-3.6982,-8.3347,5,982.6501,46.8293,50.742893,-1.894647,98.1,NaN,,,19.097,,0 / 26,5526,2018-03-06 15:00:16:694
-1.003769,-0.933151,10.158005,1.389833,0.545503,9.692326,-2.413307,-1.465438,0.24255,-16.3146,1.4084,-92.2095,179,-1.2436,14.2456,-18.1396,353.6024,-3.3938,-8.5466,5,982.6501,46.8293,50.742893,-1.894647,98.1,NaN,,,19.097,,0 / 26,5566,2018-03-06 15:00:16:734
-1.274307,-0.363327,10.677536,1.381808,0.492929,9.696288,-2.673415,-0.835969,0.740788,-18.8789,-10.3714,-89.3411,182,-2.2934,14.0961,-18.7408,357.5466,-3.0984,-8.0667,5,982.6133,46.8293,50.742893,-1.894647,98.1,NaN,,,19.097,,0 / 26,5607,2018-03-06 15:00:16:775
-1.240784,-0.43515,10.713455,1.429766,0.454787,9.691198,-2.722494,-0.880886,0.757827,-16.9861,-8.7234,-81.7114,182,-3.1937,14.2456,-18.7408,357.3155,-2.8812,-8.1105,5,982.6133,46.8293,50.742893,-1.894647,98.1,NaN,,,19.097,,0 / 26,5647,2018-03-06 15:00:16:815
-2.437897,-0.638657,10.43573,1.388015,0.420496,9.698813,-3.750469,-1.07039,0.45261,-13.4462,4.0942,-71.7019,182,-4.0939,14.2456,-17.3904,0.8458,-2.5227,-8.3204,5,982.58,46.8293,50.742893,-1.894647,98.1,NaN,,,19.097,,0 / 26,5687,2018-03-06 15:00:16:855
-2.181717,0.005386,11.024704,1.298497,0.382892,9.712759,-3.857544,-0.582832,0.92306,-10.8216,3.1176,-49.3024,182,-4.0939,14.6957,-17.3904,5.332,-2.3852,-7.9558,5,982.52,46.8293,50.742893,-1.894647,98.1,NaN,,,19.097,,0 / 26,5726,2018-03-06 15:00:16:894
-1.705261,0.460281,11.060608,1.163685,0.369058,9.730365,-2.978274,0.059882,1.136553,-1.606,16.1179,-25.254,171,-4.0939,14.6957,-17.3904,6.488,-2.177,-7.3918,5,982.52,40.71111,50.742893,-1.894647,98.1,NaN,,,19.097,,0 / 26,5766,2018-03-06 15:00:16:934
-1.384445,0.374084,10.644028,1.083002,0.392429,9.738763,-2.585853,-0.034236,0.573872,4.193,5.681,-13.9629,158,-4.0939,14.6957,-17.691,6.6722,-2.1567,-6.8198,5,982.4467,40.71111,50.742893,-1.894647,98.1,NaN,,,19.097,,0 / 26,5806,2018-03-06 15:00:16:974
-0.177765,0.383667,10.433334,0.974965,0.451879,9.747597,-1.1842,-0.1003,0.433291,6.939,16.1791,-11.8262,145,-4.0939,14.6957,-18.4402,7.1999,-2.2934,-6.3455,5,982.3967,40.71111,50.742893,-1.894647,98.1,NaN,,,19.097,,0 / 26,5846,2018-03-06 15:00:17:014
-0.831375,0.419571,9.853928,0.793254,0.500475,9.761694,-1.704678,-0.175353,-0.159328,4.742,23.3813,-11.5211,145,-4.3945,14.6957,-18.1396,8.2934,-2.7624,-5.3242,5,982.3967,40.71111,50.742893,-1.894647,98.1,NaN,,,19.097,,0 / 26,5886,2018-03-06 15:00:17:054
-0.491409,-0.061661,9.741409,0.731648,0.518046,9.765588,-1.187385,-0.592802,-0.294695,4.2542,9.5872,-4.2577,129,-4.5441,14.2456,-18.1396,13.6898,-3.0281,-4.2847,5,982.36,40.71111,50.742893,-1.894647,98.1,NaN,,,19.097,,0 / 26,5926,2018-03-06 15:00:17:094
0.035324,0.445908,10.011948,0.548638,0.552981,9.775663,-0.509495,-0.123716,-0.053631,4.8644,24.2967,5.3243,116,-4.0939,13.7955,-18.7408,13.6898,-3.0281,-4.2847,5,982.3,40.71111,50.742893,-1.894647,98.1,NaN,,,19.097,,0 / 26,5967,2018-03-06 15:00:17:135
0.569229,0.462677,9.707886,0.429123,0.579251,9.780118,0.043225,-0.204462,-0.345599,4.9247,25.0293,6.8507,100,-3.3432,13.7955,-18.8904,11.0062,-3.2325,-3.2122,5,982.3,40.71111,50.742893,-1.894647,98.1,NaN,,,19.097,,0 / 26,6007,2018-03-06 15:00:17:175
-0.026932,1.018127,10.019135,0.271149,0.609994,9.783904,-0.328281,0.385357,-0.029352,1.9951,1.6532,0.014,100,-3.1937,14.0961,-18.7408,8.7486,-3.4744,-2.0196,5,982.2433,40.71111,50.742893,-1.894647,98.1,NaN,,,19.097,,0 / 26,6046,2018-03-06 15:00:17:214
-0.115509,0.074814,10.29686,0.306461,0.620915,9.782173,-0.485443,-0.286609,-0.021722,1.446,-7.2581,-4.624,84,-3.3432,14.3951,-18.7408,9.1364,-3.6076,-1.6845,5,982.25,40.71094,50.742893,-1.894647,98.1,NaN,,,19.097,,0 / 26,6086,2018-03-06 15:00:17:254
-0.275925,0.280716,10.459671,0.270749,0.628554,9.782741,-0.58779,-0.369856,0.412931,2.545,9.2209,-4.0137,84,-2.8946,14.2456,-19.0399,8.9389,-3.6301,-1.842,5,982.25,40.71094,50.742893,-1.894647,98.1,NaN,,,19.097,,0 / 26,6126,2018-03-06 15:00:17:294
-0.635056,0.163406,10.385452,0.145065,0.654654,9.783699,-0.795968,-0.481722,0.319127,4.0094,8.6718,1.5405,76,-2.7435,13.945,-19.0399,9.5444,-3.7271,-1.3325,5,982.29,40.71094,50.742893,-1.894647,98.1,NaN,,,19.097,,0 / 26,6167,2018-03-06 15:00:17:335
-0.125092,0.165787,10.318405,0.162555,0.679101,9.781757,0.010622,-0.526565,0.26442,5.1083,-6.5867,3.9202,76,-2.8946,13.945,-18.7408,10.1641,-3.8589,-0.8013,5,982.31,40.71094,50.742893,-1.894647,98.1,NaN,,,19.097,,0 / 26,6206,2018-03-06 15:00:17:374
0.444733,0.541687,10.265732,0.13867,0.71927,9.779255,0.31288,-0.163385,0.21114,6.2073,8.0616,0.9302,73,-2.8946,13.945,-18.8904,9.936,-4.0529,-0.9573,5,982.31,40.71094,50.742893,-1.894647,98.1,NaN,,,19.097,,0 / 26,6246,2018-03-06 15:00:17:414
0.212494,0.381271,10.00238,0.105001,0.744972,9.777749,0.118867,-0.283241,-0.012847,4.4369,4.6432,-3.3423,68,-2.7435,13.945,-18.7408,10.2863,-4.3567,-0.6153,5,982.3066,40.71094,50.742893,-1.894647,98.1,NaN,,,19.097,,0 / 26,6287,2018-03-06 15:00:17:455
-0.393234,0.316635,9.437347,0.062547,0.769637,9.776203,-0.40966,-0.550087,-0.642734,2.8501,8.9769,-7.2485,68,-2.7435,13.945,-18.7408,10.2863,-4.3567,-0.6153,5,982.27,40.71094,50.742893,-1.894647,98.1,NaN,,,19.097,,0 / 26,6327,2018-03-06 15:00:17:495
-0.745193,0.570419,9.60733,0.012192,0.775951,9.775896,-0.770891,-0.223401,-0.432888,0.1032,0.737,-1.2065,63,-2.7435,13.7955,-18.7408,10.5538,-4.5013,-0.3666,5,982.27,40.71094,50.742893,-1.894647,98.1,NaN,,,19.097,,0 / 26,6366,2018-03-06 15:00:17:534
-0.362122,0.254379,9.420578,0.077676,0.769653,9.776093,-0.411964,-0.546901,-0.640751,-0.4459,-12.0194,2.5782,60,-2.4445,13.7955,-18.7408,10.8972,-4.5383,-0.0715,5,982.2366,40.6568,50.742893,-1.894647,98.1,NaN,,,19.097,,0 / 26,6407,2018-03-06 15:00:17:575
-0.007782,0.788284,10.363907,0.07105,0.749369,9.777719,-0.06637,-0.044692,0.336288,-3.3143,7.3902,2.517,63,-2.4445,13.7955,-18.7408,6.8167,-4.4723,-0.5206,5,982.21,40.6568,50.742893,-1.894647,98.1,NaN,,,19.097,,0 / 26,6446,2018-03-06 15:00:17:614
-0.062836,0.69252,9.758163,0.027113,0.732574,9.779212,0.042198,0.00016,-0.363507,-4.9011,1.2869,-0.779,63,-2.2934,13.7955,-18.5898,7.0757,-4.3365,-0.2677,5,982.21,40.6568,50.742893,-1.894647,98.1,NaN,,,19.097,,0 / 26,6486,2018-03-06 15:00:17:654
0.028137,0.783493,10.181946,0.052935,0.691164,9.782121,-0.224916,-0.013359,-0.07489,-6.6715,-11.4695,-0.779,60,-2.2934,13.7955,-18.4402,7.2545,-4.1664,-0.1412,5,982.1967,40.6568,50.742893,-1.894647,98.1,NaN,,,19.097,,0 / 26,6526,2018-03-06 15:00:17:694
0.138275,1.008545,10.08139,0.039909,0.657078,9.784532,0.248134,0.326751,0.15291,-2.8265,18.0107,-1.2065,60,-2.2934,14.2456,-18.1396,7.0218,-3.8945,-0.4101,5,982.1633,40.6568,50.742893,-1.894647,98.1,NaN,,,19.097,,0 / 26,6566,2018-03-06 15:00:17:734
-0.532104,0.062836,9.619308,-0.035238,0.647445,9.785191,-0.521712,-0.542243,-0.451855,-2.1551,-9.6388,5.0803,60,-3.3432,13.945,-18.4402,11.4312,-3.7855,0.2063,5,982.1633,40.6568,50.742893,-1.894647,98.1,NaN,,,19.097,,0 / 26,6606,2018-03-06 15:00:17:774
0.353745,0.931931,10.696701,0.019454,0.629349,9.786416,-0.084006,-0.626141,0.246122,-5.3286,-13.1175,3.6763,60,-3.3432,13.945,-18.4402,11.4312,-3.7855,0.2063,5,982.1367,40.6568,50.742893,-1.894647,98.1,NaN,,,19.097,,0 / 26,6647,2018-03-06 15:00:17:815
-0.034103,0.682938,11.32637,0.155814,0.587575,9.787792,-0.220254,0.185254,1.239938,-3.0092,-15.6196,4.7752,60,-3.1937,14.3951,-18.4402,10.2151,-3.435,-0.912,5,982.1333,40.6568,50.742893,-1.894647,98.1,NaN,,,19.097,,0 / 26,6687,2018-03-06 15:00:17:855
0.284317,0.817017,10.665573,0.229127,0.624537,9.78406,0.110923,0.228564,0.515594,10.1738,-1.2161,6.3008,68,-2.8946,14.3951,-18.4402,10.2151,-3.435,-0.912,5,982.1333,43.49393,50.742893,-1.894647,98.1,NaN,,,19.097,,0 / 26,6727,2018-03-06 15:00:17:895
-0.431549,0.884048,10.011948,0.247446,0.684578,9.779596,-0.548429,0.319905,0.065517,11.7615,-18.4889,8.9254,68,-2.8946,14.2456,-18.4402,9.6739,-3.6514,-1.3415,5,982.23,43.49393,50.742893,-1.894647,98.1,NaN,,,19.097,,0 / 26,6767,2018-03-06 15:00:17:935
0.832596,0.402817,9.731827,0.437142,0.753556,9.767879,0.339846,-0.277716,-0.216039,9.9299,-26.1178,6.1793,68,-3.1937,14.2456,-18.4402,9.2408,-4.1185,-1.6416,5,982.3033,43.49393,50.742893,-1.894647,98.1,NaN,,,19.097,,0 / 26,6806,2018-03-06 15:00:17:974
0.272354,0.635056,9.003998,0.474912,0.811663,9.761456,-0.09973,-0.210097,-0.927715,6.8175,5.9861,5.2027,76,-2.8946,14.2456,-18.4402,7.8821,-4.4987,-2.7624,5,982.3033,43.49393,50.742893,-1.894647,98.1,NaN,,,19.097,,0 / 26,6846,2018-03-06 15:00:18:014
0.473465,0.584778,9.104553,0.538435,0.836227,9.756085,-0.555872,-0.245178,-0.948291,0.2868,-24.3483,5.4467,76,-2.8946,14.0961,-18.4402,7.8704,-4.8326,-2.7294,5,982.2933,43.49393,50.742893,-1.894647,98.1,NaN,,,19.097,,0 / 26,6886,2018-03-06 15:00:18:054
1.069611,0.754761,9.44931,0.621696,0.829738,9.751687,0.45083,-0.099046,-0.577607,-1.9715,7.1462,3.066,76,-2.8946,13.7955,-18.4402,6.9765,-4.8833,-3.4985,5,982.1767,43.49393,50.742893,-1.894647,98.1,NaN,,,19.097,,0 / 26,6927,2018-03-06 15:00:18:095
0.607529,0.596756,10.248978,0.545257,0.80725,9.758146,-0.259496,-0.072189,-0.031221,-2.3378,3.6667,3.7375,81,-4.0939,13.7955,-18.5898,6.9883,-4.8171,-3.4959,5,982.1767,43.49393,50.742893,-1.894647,98.1,NaN,,,19.097,,0 / 26,6966,2018-03-06 15:00:18:134
0.562042,0.740402,9.782104,0.543439,0.79858,9.758961,-0.017631,-0.020099,-0.213293,-0.2632,-1.3988,0.6251,79,-3.9444,13.7955,-18.5898,10.7509,-4.6886,-3.1581,5,982.1301,43.49393,50.742893,-1.894647,98.1,NaN,,,19.097,,0 / 26,7006,2018-03-06 15:00:18:174
1.021729,0.426758,9.822815,0.569835,0.795128,9.757738,0.410507,-0.398294,-0.213331,-1.8499,1.2869,-3.0372,79,-3.7933,13.7955,-17.8406,7.011,-4.6665,-3.2814,5,982.1567,41.27805,50.742893,-1.894647,98.1,NaN,,,19.097,,0 / 26,7046,2018-03-06 15:00:18:214
0.523743,0.295074,9.834778,0.54808,0.76432,9.761445,-0.001161,-0.465925,-0.178411,-4.8408,-0.7274,-2.3046,79,-3.7933,13.7955,-18.1396,10.8373,-4.6159,-3.317,5,982.1767,41.27805,50.742893,-1.894647,98.1,NaN,,,19.097,,0 / 26,7086,2018-03-06 15:00:18:254
1.064835,0.716461,10.172363,0.52878,0.743192,9.764141,0.61118,0.005847,0.084426,-3.0704,13.6158,-3.5259,79,-3.7933,13.7955,-18.1396,11.0001,-4.3982,-3.2138,5,982.1767,41.27805,50.742893,-1.894647,98.1,NaN,,,19.097,,0 / 26,7126,2018-03-06 15:00:18:294
-0.000595,0.536896,10.251373,0.437895,0.721815,9.770242,-0.459331,-0.19273,0.261909,-1.606,0.737,-5.4178,79,-3.3432,13.7955,-18.1396,8.6355,-4.2513,-2.6238,5,982.1934,41.27805,50.742893,-1.894647,98.1,NaN,,,19.097,,0 / 26,7167,2018-03-06 15:00:18:335
0.162216,0.596756,10.11969,0.434267,0.717759,9.770702,-0.265327,-0.131196,0.102191,-0.0184,3.24,-3.6474,73,-2.2934,13.7955,-18.1396,4.4845,-4.1973,-2.5449,5,982.2067,41.27805,50.742893,-1.894647,98.1,NaN,,,19.097,,0 / 26,7206,2018-03-06 15:00:18:374
0.013779,0.565628,10.067017,0.402793,0.712306,9.772449,-0.342013,-0.231023,0.019165,-0.9346,2.4462,-2.8545,73,-2.7435,14.3951,-17.8406,4.4845,-4.1973,-2.5449,5,982.2067,41.27805,50.742893,-1.894647,98.1,NaN,,,19.097,,0 / 26,7246,2018-03-06 15:00:18:414
0.164612,0.524918,10.031113,0.339252,0.708129,9.775166,-0.388141,-0.199163,0.017046,-0.5683,10.6861,-3.5871,73,-2.7435,14.0961,-17.8406,8.4003,-4.1653,-2.3602,5,982.22,41.27805,50.742893,-1.894647,98.1,NaN,,,19.097,,0 / 26,7286,2018-03-06 15:00:18:454
0.035324,0.431549,10.193909,0.295459,0.6993,9.777222,-0.237892,-0.186562,0.13981,-0.751,4.1554,-2.4882,68,-2.7435,14.0961,-18.4402,8.8365,-4.1409,-1.9877,5,982.22,41.27805,50.742893,-1.894647,98.1,NaN,,,19.097,,0 / 26,7326,2018-03-06 15:00:18:494
-0.383667,0.481827,10.117294,0.264085,0.697322,9.778261,-0.542109,-0.055316,0.130573,0.042,2.6298,-0.3515,66,-2.7435,14.0961,-18.4402,9.1427,-4.0892,-1.7309,5,982.22,44.32825,50.742893,-1.894647,98.1,NaN,,,19.097,,0 / 26,7366,2018-03-06 15:00:18:534
0.159821,0.579987,10.201096,0.260309,0.696102,9.778449,-0.194695,-0.14871,0.140134,0.348,-3.8406,0.014,66,-2.7435,13.945,-18.7408,9.3575,-4.0776,-1.547,5,982.24,44.32825,50.742893,-1.894647,98.1,NaN,,,19.097,,0 / 26,7406,2018-03-06 15:00:18:574
0.114334,0.386063,9.916183,0.257318,0.697,9.778464,0.074055,-0.179749,-0.010829,0.5307,4.7656,-1.634,66,-2.7435,13.945,-18.5898,9.2087,-4.0658,-1.5552,5,982.24,44.32825,50.742893,-1.894647,98.1,NaN,,,19.097,,0 / 26,7447,2018-03-06 15:00:18:615
-0.103546,0.587173,9.911392,0.224946,0.692938,9.779552,-0.310453,-0.18625,-0.118242,-0.5683,2.385,-2.2442,63,-2.7435,13.945,-17.9901,9.4881,-4.0783,-1.4338,5,982.2534,44.32825,50.742893,-1.894647,98.1,NaN,,,19.097,,0 / 26,7486,2018-03-06 15:00:18:654
0.219681,0.539291,9.901825,0.286117,0.680674,9.778813,-0.007301,-0.099045,-0.113029,-2.0327,-12.0194,-0.6574,66,-2.1439,14.0961,-17.8406,5.8495,-4.0267,-1.3971,5,982.2466,44.32825,50.742893,-1.894647,98.1,NaN,,,19.097,,0 / 26,7527,2018-03-06 15:00:18:695
0.353745,0.661392,10.301651,0.199981,0.667892,9.781836,0.159346,-0.023832,0.259991,-0.3847,33.9407,-0.1075,66,-2.2934,14.0961,-17.9901,5.3446,-3.9361,-1.835,5,982.3133,44.32825,50.742893,-1.894647,98.1,NaN,,,19.097,,0 / 26,7566,2018-03-06 15:00:18:734
-0.268738,0.280716,10.177155,0.080795,0.658679,9.784171,-0.119402,-0.360429,0.221598,-0.4459,-1.3988,-0.6574,63,-3.4943,14.0961,-18.5898,13.9962,-3.8996,-0.6758,5,982.3133,44.32825,50.742893,-1.894647,98.1,NaN,,,19.097,,0 / 26,7606,2018-03-06 15:00:18:774
